sub.id,sub.no,worker.id,trial.type,trial.no,left.book.no,right.book.no,left.book.id,right.book.id,response,rt
1,0,5ab3c75561533800011c6aca,similarity,0,206,333,tt0095016,tt0328107,4,14419
1,0,5ab3c75561533800011c6aca,similarity,1,8,24,tt0387564,tt0116367,1,4244
1,0,5ab3c75561533800011c6aca,similarity,2,302,90,tt1840309,tt0945513,5,3443
1,0,5ab3c75561533800011c6aca,similarity,3,14,31,tt0084787,tt0363547,6,3229
1,0,5ab3c75561533800011c6aca,similarity,4,308,305,tt0120591,tt0319262,7,1757
1,0,5ab3c75561533800011c6aca,similarity,5,172,173,tt0099685,tt0105236,6,1920
1,0,5ab3c75561533800011c6aca,similarity,6,220,214,tt0206634,tt0114746,4,7017
1,0,5ab3c75561533800011c6aca,similarity,7,244,114,tt1675434,tt1193138,5,6152
1,0,5ab3c75561533800011c6aca,similarity,8,39,0,tt1139797,tt0081505,6,2691
1,0,5ab3c75561533800011c6aca,similarity,9,303,122,tt1535108,tt0499549,6,2305
1,0,5ab3c75561533800011c6aca,similarity,10,216,329,tt0073195,tt0360717,6,2568
1,0,5ab3c75561533800011c6aca,similarity,11,219,213,tt0364569,tt0440963,6,2627
1,0,5ab3c75561533800011c6aca,similarity,12,302,292,tt1840309,tt0418279,5,2218
1,0,5ab3c75561533800011c6aca,similarity,13,283,252,tt0848228,tt0478970,6,2725
1,0,5ab3c75561533800011c6aca,similarity,14,225,186,tt2911666,tt0936501,7,2441
1,0,5ab3c75561533800011c6aca,similarity,15,238,313,tt1650062,tt0286106,1,1884
1,0,5ab3c75561533800011c6aca,similarity,16,88,383,tt0162222,tt0758758,1,2388
1,0,5ab3c75561533800011c6aca,similarity,17,20,27,tt0360486,tt0450385,2,2333
1,0,5ab3c75561533800011c6aca,similarity,18,225,246,tt2911666,tt2802144,3,3214
1,0,5ab3c75561533800011c6aca,similarity,19,29,14,tt0120804,tt0084787,1,2668
1,0,5ab3c75561533800011c6aca,similarity,20,284,209,tt0482571,tt0947798,5,2195
1,0,5ab3c75561533800011c6aca,similarity,21,201,4,tt1130884,tt0054215,6,3596
1,0,5ab3c75561533800011c6aca,similarity,22,188,193,tt0116282,tt0120735,2,3197
1,0,5ab3c75561533800011c6aca,similarity,23,156,16,tt0320691,tt0162661,3,3002
1,0,5ab3c75561533800011c6aca,similarity,24,65,45,tt1490017,tt0198781,6,1931
1,0,5ab3c75561533800011c6aca,similarity,25,318,296,tt0100802,tt0062622,2,2529
1,0,5ab3c75561533800011c6aca,similarity,26,219,164,tt0364569,tt0114369,4,2474
1,0,5ab3c75561533800011c6aca,similarity,27,235,306,tt0093773,tt0800080,2,5004
1,0,5ab3c75561533800011c6aca,similarity,28,75,55,tt0097757,tt0101414,6,2273
1,0,5ab3c75561533800011c6aca,similarity,29,64,258,tt0103639,tt0367594,5,2520
1,0,5ab3c75561533800011c6aca,similarity,30,315,221,tt0217869,tt0289879,4,3416
1,0,5ab3c75561533800011c6aca,similarity,31,193,196,tt0120735,tt0240772,5,2404
1,0,5ab3c75561533800011c6aca,similarity,32,214,118,tt0114746,tt0399201,2,2405
1,0,5ab3c75561533800011c6aca,similarity,33,159,191,tt0259711,tt1276104,4,2405
1,0,5ab3c75561533800011c6aca,similarity,34,69,74,tt0347149,tt0120762,1,3498
1,0,5ab3c75561533800011c6aca,similarity,35,127,145,tt1201607,tt0363771,6,2737
1,0,5ab3c75561533800011c6aca,similarity,36,391,392,tt1291584,tt0790636,1,2740
1,0,5ab3c75561533800011c6aca,similarity,37,351,341,tt3890160,tt3397884,1,4706
1,0,5ab3c75561533800011c6aca,similarity,38,195,66,tt1232829,tt0462538,5,3294
1,0,5ab3c75561533800011c6aca,similarity,39,32,21,tt0134847,tt0884328,1,2343
1,0,5ab3c75561533800011c6aca,similarity,40,33,26,tt0185937,tt5052448,1,2143
1,0,5ab3c75561533800011c6aca,similarity,41,50,68,tt0245429,tt0107688,1,2163
1,0,5ab3c75561533800011c6aca,similarity,42,32,8,tt0134847,tt0387564,2,2652
1,0,5ab3c75561533800011c6aca,similarity,43,296,289,tt0062622,tt3659388,4,2218
1,0,5ab3c75561533800011c6aca,similarity,44,8,39,tt0387564,tt1139797,6,2232
1,0,5ab3c75561533800011c6aca,similarity,45,28,12,tt1396484,tt0070047,7,1884
1,0,5ab3c75561533800011c6aca,similarity,46,32,29,tt0134847,tt0120804,2,2223
1,0,5ab3c75561533800011c6aca,similarity,47,57,140,tt0398286,tt0093779,6,2358
1,0,5ab3c75561533800011c6aca,similarity,48,246,90,tt2802144,tt0945513,2,2038
1,0,5ab3c75561533800011c6aca,similarity,49,71,68,tt0121164,tt0107688,7,3204
1,0,5ab3c75561533800011c6aca,similarity,50,173,196,tt0105236,tt0240772,7,1588
1,0,5ab3c75561533800011c6aca,similarity,51,27,25,tt0450385,tt1591095,2,2132
1,0,5ab3c75561533800011c6aca,similarity,52,327,330,tt2713180,tt5013056,7,1805
1,0,5ab3c75561533800011c6aca,similarity,53,57,75,tt0398286,tt0097757,6,1968
1,0,5ab3c75561533800011c6aca,similarity,54,210,289,tt1136608,tt3659388,4,1752
1,0,5ab3c75561533800011c6aca,similarity,55,142,50,tt0032138,tt0245429,1,1882
1,0,5ab3c75561533800011c6aca,similarity,56,229,159,tt2872718,tt0259711,3,3634
1,0,5ab3c75561533800011c6aca,similarity,57,304,340,tt0470752,tt0433035,5,3079
1,0,5ab3c75561533800011c6aca,similarity,58,189,190,tt0780504,tt0113277,1,3672
1,0,5ab3c75561533800011c6aca,similarity,59,161,37,tt0468569,tt0259324,5,4343
1,0,5ab3c75561533800011c6aca,similarity,60,8,33,tt0387564,tt0185937,7,2567
1,0,5ab3c75561533800011c6aca,similarity,61,186,333,tt0936501,tt0328107,7,1478
1,0,5ab3c75561533800011c6aca,similarity,62,109,105,tt1632708,tt0478311,7,2295
1,0,5ab3c75561533800011c6aca,similarity,63,50,64,tt0245429,tt0103639,2,1486
1,0,5ab3c75561533800011c6aca,similarity,64,358,351,tt0187078,tt3890160,3,2203
1,0,5ab3c75561533800011c6aca,similarity,65,252,158,tt0478970,tt0486576,5,1952
1,0,5ab3c75561533800011c6aca,similarity,66,86,93,tt0107048,tt1022603,1,2449
1,0,5ab3c75561533800011c6aca,similarity,67,70,72,tt0120623,tt0096283,1,2552
1,0,5ab3c75561533800011c6aca,similarity,68,118,296,tt0399201,tt0062622,2,2194
1,0,5ab3c75561533800011c6aca,similarity,69,112,93,tt0343660,tt1022603,5,1877
1,0,5ab3c75561533800011c6aca,similarity,70,272,273,tt1231583,tt0910936,6,3095
1,0,5ab3c75561533800011c6aca,similarity,71,182,341,tt0317248,tt3397884,2,3425
1,0,5ab3c75561533800011c6aca,similarity,72,108,100,tt0396269,tt0405422,7,1742
1,0,5ab3c75561533800011c6aca,similarity,73,315,369,tt0217869,tt0119217,4,2215
1,0,5ab3c75561533800011c6aca,similarity,74,350,158,tt1037705,tt0486576,3,1581
1,0,5ab3c75561533800011c6aca,similarity,75,354,336,tt0118880,tt0117500,3,755
1,0,5ab3c75561533800011c6aca,similarity,76,85,82,tt1045658,tt0338013,7,4893
1,0,5ab3c75561533800011c6aca,similarity,77,7,0,tt1457767,tt0081505,6,1983
1,0,5ab3c75561533800011c6aca,similarity,78,148,149,tt0120601,tt0389860,5,2504
1,0,5ab3c75561533800011c6aca,similarity,79,172,390,tt0099685,tt0112641,7,2647
1,0,5ab3c75561533800011c6aca,similarity,80,122,322,tt0499549,tt1483013,5,2404
1,0,5ab3c75561533800011c6aca,similarity,81,29,9,tt0120804,tt0289043,2,2693
1,0,5ab3c75561533800011c6aca,similarity,82,32,14,tt0134847,tt0084787,2,1382
1,0,5ab3c75561533800011c6aca,similarity,83,112,119,tt0343660,tt0386588,7,2086
1,0,5ab3c75561533800011c6aca,similarity,84,48,50,tt0382932,tt0245429,5,1680
1,0,5ab3c75561533800011c6aca,similarity,85,280,118,tt1375666,tt0399201,3,2334
1,0,5ab3c75561533800011c6aca,similarity,86,217,237,tt1219289,tt0361862,4,3556
1,0,5ab3c75561533800011c6aca,similarity,87,177,239,tt0208092,tt0317740,6,3258
1,0,5ab3c75561533800011c6aca,similarity,88,306,252,tt0800080,tt0478970,7,2040
1,0,5ab3c75561533800011c6aca,similarity,89,71,69,tt0121164,tt0347149,5,2916
1,0,5ab3c75561533800011c6aca,similarity,90,53,42,tt1323594,tt1049413,7,1620
1,0,5ab3c75561533800011c6aca,similarity,91,363,226,tt0120815,tt0887912,7,1587
1,0,5ab3c75561533800011c6aca,similarity,92,214,179,tt0114746,tt0066921,2,2218
1,0,5ab3c75561533800011c6aca,similarity,93,239,173,tt0317740,tt0105236,6,1533
1,0,5ab3c75561533800011c6aca,similarity,94,129,296,tt0800369,tt0062622,2,2931
1,0,5ab3c75561533800011c6aca,similarity,95,266,244,tt0458352,tt1675434,2,2429
1,0,5ab3c75561533800011c6aca,similarity,96,336,213,tt0117500,tt0440963,2,1680
1,0,5ab3c75561533800011c6aca,similarity,97,137,8,tt0120616,tt0387564,1,2529
1,0,5ab3c75561533800011c6aca,similarity,98,41,73,tt0266543,tt1192628,7,1617
1,0,5ab3c75561533800011c6aca,similarity,99,124,137,tt0325980,tt0120616,5,2507
1,0,5ab3c75561533800011c6aca,similarity,100,198,197,tt0343818,tt0181689,2,1845
1,0,5ab3c75561533800011c6aca,similarity,101,247,89,tt0118799,tt0034583,7,2513
1,0,5ab3c75561533800011c6aca,similarity,102,45,78,tt0198781,tt0837562,6,2319
1,0,5ab3c75561533800011c6aca,similarity,103,201,315,tt1130884,tt0217869,7,3314
1,0,5ab3c75561533800011c6aca,similarity,104,148,131,tt0120601,tt1637725,5,1979
1,0,5ab3c75561533800011c6aca,similarity,105,37,290,tt0259324,tt0145487,2,3259
1,0,5ab3c75561533800011c6aca,similarity,106,213,211,tt0440963,tt1074638,3,3003
1,0,5ab3c75561533800011c6aca,similarity,107,198,227,tt0343818,tt0407304,4,1936
1,0,5ab3c75561533800011c6aca,similarity,108,366,349,tt0112573,tt0472043,3,2466
1,0,5ab3c75561533800011c6aca,similarity,109,51,57,tt2294629,tt0398286,7,1325
1,0,5ab3c75561533800011c6aca,similarity,110,212,191,tt0083658,tt1276104,5,2038
1,0,5ab3c75561533800011c6aca,similarity,111,181,163,tt0086250,tt0068646,7,3515
1,0,5ab3c75561533800011c6aca,similarity,112,15,219,tt0230600,tt0364569,3,2311
1,0,5ab3c75561533800011c6aca,similarity,113,165,230,tt0102926,tt0047396,2,2793
1,0,5ab3c75561533800011c6aca,similarity,114,206,222,tt0095016,tt1229238,2,4715
1,0,5ab3c75561533800011c6aca,similarity,115,196,177,tt0240772,tt0208092,7,1418
1,0,5ab3c75561533800011c6aca,similarity,116,200,82,tt0209144,tt0338013,5,1836
1,0,5ab3c75561533800011c6aca,similarity,117,289,121,tt3659388,tt0076759,4,1292
1,0,5ab3c75561533800011c6aca,similarity,118,302,306,tt1840309,tt0800080,3,1813
1,0,5ab3c75561533800011c6aca,similarity,119,30,5,tt1077368,tt0365748,3,2778
1,0,5ab3c75561533800011c6aca,similarity,120,235,3,tt0093773,tt0816711,2,2163
1,0,5ab3c75561533800011c6aca,similarity,121,375,362,tt0093058,tt0361748,5,2264
1,0,5ab3c75561533800011c6aca,similarity,122,75,258,tt0097757,tt0367594,4,2803
1,0,5ab3c75561533800011c6aca,similarity,123,350,302,tt1037705,tt1840309,3,2537
1,0,5ab3c75561533800011c6aca,similarity,124,5,24,tt0365748,tt0116367,1,2781
1,0,5ab3c75561533800011c6aca,similarity,125,298,346,tt1318514,tt0379786,1,2157
1,0,5ab3c75561533800011c6aca,similarity,126,39,31,tt1139797,tt0363547,1,4605
1,0,5ab3c75561533800011c6aca,similarity,127,284,187,tt0482571,tt1670345,5,6862
1,0,5ab3c75561533800011c6aca,similarity,128,254,99,tt0449059,tt0314331,5,14348
1,0,5ab3c75561533800011c6aca,similarity,129,31,11,tt0363547,tt1259521,1,2498
1,0,5ab3c75561533800011c6aca,similarity,130,258,44,tt0367594,tt0114709,5,4784
1,0,5ab3c75561533800011c6aca,similarity,131,356,303,tt0120201,tt1535108,1,17163
1,0,5ab3c75561533800011c6aca,similarity,132,112,109,tt0343660,tt1632708,5,11266
1,0,5ab3c75561533800011c6aca,similarity,133,286,350,tt2015381,tt1037705,5,1083
1,0,5ab3c75561533800011c6aca,similarity,134,368,392,tt0268978,tt0790636,3,2310
1,0,5ab3c75561533800011c6aca,similarity,135,21,31,tt0884328,tt0363547,2,1674
1,0,5ab3c75561533800011c6aca,similarity,136,128,18,tt0770828,tt0167190,3,3635
1,0,5ab3c75561533800011c6aca,similarity,137,159,284,tt0259711,tt0482571,4,5586
1,0,5ab3c75561533800011c6aca,similarity,138,358,171,tt0187078,tt0266697,2,9291
1,0,5ab3c75561533800011c6aca,similarity,139,127,258,tt1201607,tt0367594,2,9968
1,0,5ab3c75561533800011c6aca,similarity,140,84,315,tt0211915,tt0217869,1,7138
1,0,5ab3c75561533800011c6aca,similarity,141,75,46,tt0097757,tt0892769,5,4277
1,0,5ab3c75561533800011c6aca,similarity,142,382,375,tt0078788,tt0093058,3,11328
1,0,5ab3c75561533800011c6aca,similarity,143,60,56,tt1217209,tt0441773,7,2708
1,0,5ab3c75561533800011c6aca,similarity,144,2,1,tt0480249,tt0078748,3,7593
1,0,5ab3c75561533800011c6aca,similarity,145,358,336,tt0187078,tt0117500,3,1578
1,0,5ab3c75561533800011c6aca,similarity,146,277,271,tt0091042,tt0088847,7,2676
1,0,5ab3c75561533800011c6aca,similarity,147,145,142,tt0363771,tt0032138,7,13868
1,0,5ab3c75561533800011c6aca,similarity,148,136,321,tt0451279,tt0082971,3,2388
1,0,5ab3c75561533800011c6aca,similarity,149,84,119,tt0211915,tt0386588,1,1509
1,0,5ab3c75561533800011c6aca,similarity,150,259,272,tt1723121,tt1231583,7,2747
1,0,5ab3c75561533800011c6aca,similarity,151,27,28,tt0450385,tt1396484,2,10115
1,0,5ab3c75561533800011c6aca,similarity,152,158,242,tt0486576,tt1431045,6,7190
1,0,5ab3c75561533800011c6aca,similarity,153,203,115,tt0167404,tt0052357,6,4310
1,0,5ab3c75561533800011c6aca,similarity,154,306,287,tt0800080,tt0371746,2,7929
1,0,5ab3c75561533800011c6aca,similarity,155,200,219,tt0209144,tt0364569,2,1698
1,0,5ab3c75561533800011c6aca,similarity,156,93,154,tt1022603,tt2194499,5,20271
1,0,5ab3c75561533800011c6aca,similarity,157,148,270,tt0120601,tt0357413,3,8792
1,0,5ab3c75561533800011c6aca,similarity,158,142,68,tt0032138,tt0107688,1,13044
1,0,5ab3c75561533800011c6aca,similarity,159,32,7,tt0134847,tt1457767,1,1446
1,0,5ab3c75561533800011c6aca,similarity,160,105,108,tt0478311,tt0396269,5,10892
1,0,5ab3c75561533800011c6aca,similarity,161,244,85,tt1675434,tt1045658,5,2788
1,0,5ab3c75561533800011c6aca,similarity,162,23,200,tt4972582,tt0209144,5,3281
1,0,5ab3c75561533800011c6aca,similarity,163,82,154,tt0338013,tt2194499,4,3301
1,0,5ab3c75561533800011c6aca,similarity,164,79,53,tt1436562,tt1323594,7,2132
1,0,5ab3c75561533800011c6aca,similarity,165,319,210,tt0212720,tt1136608,4,4255
1,0,5ab3c75561533800011c6aca,similarity,166,144,99,tt0038650,tt0314331,5,6566
1,0,5ab3c75561533800011c6aca,similarity,167,114,266,tt1193138,tt0458352,4,2676
1,0,5ab3c75561533800011c6aca,similarity,168,153,124,tt0473075,tt0325980,6,8568
1,0,5ab3c75561533800011c6aca,similarity,169,293,346,tt0796366,tt0379786,2,5374
1,0,5ab3c75561533800011c6aca,similarity,170,46,49,tt0892769,tt0126029,6,4466
1,0,5ab3c75561533800011c6aca,similarity,171,58,195,tt2948356,tt1232829,6,1417
1,0,5ab3c75561533800011c6aca,similarity,172,345,189,tt0455944,tt0780504,3,3750
1,0,5ab3c75561533800011c6aca,similarity,173,221,201,tt0289879,tt1130884,6,17104
1,0,5ab3c75561533800011c6aca,similarity,174,86,141,tt0107048,tt0315327,3,11640
1,0,5ab3c75561533800011c6aca,similarity,175,71,97,tt0121164,tt0099487,6,1720
1,0,5ab3c75561533800011c6aca,similarity,176,37,283,tt0259324,tt0848228,3,2108
1,0,5ab3c75561533800011c6aca,similarity,177,392,379,tt0790636,tt1285016,1,3112
1,0,5ab3c75561533800011c6aca,similarity,178,324,106,tt0448157,tt0446029,2,5960
1,0,5ab3c75561533800011c6aca,similarity,179,200,189,tt0209144,tt0780504,6,2653
1,0,5ab3c75561533800011c6aca,similarity,180,198,297,tt0343818,tt0116629,5,8116
1,0,5ab3c75561533800011c6aca,similarity,181,287,283,tt0371746,tt0848228,5,2413
1,0,5ab3c75561533800011c6aca,similarity,182,212,318,tt0083658,tt0100802,5,3860
1,0,5ab3c75561533800011c6aca,similarity,183,143,222,tt0493464,tt1229238,3,32008
1,0,5ab3c75561533800011c6aca,similarity,184,298,121,tt1318514,tt0076759,6,2943
1,0,5ab3c75561533800011c6aca,similarity,185,175,200,tt0477348,tt0209144,3,2264
1,0,5ab3c75561533800011c6aca,similarity,186,196,187,tt0240772,tt1670345,3,6991
1,0,5ab3c75561533800011c6aca,similarity,187,49,75,tt0126029,tt0097757,6,2257
1,0,5ab3c75561533800011c6aca,similarity,188,250,310,tt0119654,tt0083866,5,15747
1,0,5ab3c75561533800011c6aca,similarity,189,158,306,tt0486576,tt0800080,5,2499
1,0,5ab3c75561533800011c6aca,similarity,190,386,378,tt0095953,tt0405159,1,1782
1,0,5ab3c75561533800011c6aca,similarity,191,186,342,tt0936501,tt0944835,2,11011
1,0,5ab3c75561533800011c6aca,similarity,192,225,171,tt2911666,tt0266697,1,2801
1,0,5ab3c75561533800011c6aca,similarity,193,289,356,tt3659388,tt0120201,2,2165
1,0,5ab3c75561533800011c6aca,similarity,194,290,161,tt0145487,tt0468569,6,3603
1,0,5ab3c75561533800011c6aca,similarity,195,95,369,tt1343092,tt0119217,1,1720
1,0,5ab3c75561533800011c6aca,similarity,196,20,12,tt0360486,tt0070047,2,2723
1,0,5ab3c75561533800011c6aca,similarity,197,178,177,tt0264464,tt0208092,2,17197
1,0,5ab3c75561533800011c6aca,similarity,198,73,42,tt1192628,tt1049413,7,1382
1,0,5ab3c75561533800011c6aca,similarity,199,337,363,tt0213149,tt0120815,7,1937
1,0,5ab3c75561533800011c6aca,similarity,200,242,291,tt1431045,tt1877832,6,5142
1,0,5ab3c75561533800011c6aca,similarity,201,86,82,tt0107048,tt0338013,3,9642
1,0,5ab3c75561533800011c6aca,similarity,202,151,45,tt0113497,tt0198781,1,2800
1,0,5ab3c75561533800011c6aca,similarity,203,54,44,tt0268380,tt0114709,6,1509
1,0,5ab3c75561533800011c6aca,similarity,204,93,100,tt1022603,tt0405422,5,1907
1,0,5ab3c75561533800011c6aca,similarity,205,358,354,tt0187078,tt0118880,4,2730
1,0,5ab3c75561533800011c6aca,similarity,206,256,276,tt0057012,tt2788710,4,4131
2,6,5ab0158ca4016e0001ae02a7,similarity,0,74,69,tt0120762,tt0347149,4,15038
2,6,5ab0158ca4016e0001ae02a7,similarity,1,171,358,tt0266697,tt0187078,4,2550
2,6,5ab0158ca4016e0001ae02a7,similarity,2,391,392,tt1291584,tt0790636,2,3726
2,6,5ab0158ca4016e0001ae02a7,similarity,3,45,151,tt0198781,tt0113497,4,2724
2,6,5ab0158ca4016e0001ae02a7,similarity,4,191,159,tt1276104,tt0259711,DontKnow,3887
2,6,5ab0158ca4016e0001ae02a7,similarity,5,173,239,tt0105236,tt0317740,5,2811
2,6,5ab0158ca4016e0001ae02a7,similarity,6,296,318,tt0062622,tt0100802,4,2534
2,6,5ab0158ca4016e0001ae02a7,similarity,7,158,252,tt0486576,tt0478970,4,1944
2,6,5ab0158ca4016e0001ae02a7,similarity,8,114,266,tt1193138,tt0458352,2,3679
2,6,5ab0158ca4016e0001ae02a7,similarity,9,24,8,tt0116367,tt0387564,3,3714
2,6,5ab0158ca4016e0001ae02a7,similarity,10,214,220,tt0114746,tt0206634,6,1665
2,6,5ab0158ca4016e0001ae02a7,similarity,11,32,14,tt0134847,tt0084787,DontKnow,1294
2,6,5ab0158ca4016e0001ae02a7,similarity,12,293,346,tt0796366,tt0379786,3,1128
2,6,5ab0158ca4016e0001ae02a7,similarity,13,100,108,tt0405422,tt0396269,6,1730
2,6,5ab0158ca4016e0001ae02a7,similarity,14,212,318,tt0083658,tt0100802,6,1459
2,6,5ab0158ca4016e0001ae02a7,similarity,15,37,161,tt0259324,tt0468569,5,1017
2,6,5ab0158ca4016e0001ae02a7,similarity,16,71,68,tt0121164,tt0107688,3,910
2,6,5ab0158ca4016e0001ae02a7,similarity,17,298,346,tt1318514,tt0379786,6,1455
2,6,5ab0158ca4016e0001ae02a7,similarity,18,356,303,tt0120201,tt1535108,3,2237
2,6,5ab0158ca4016e0001ae02a7,similarity,19,27,25,tt0450385,tt1591095,3,1486
2,6,5ab0158ca4016e0001ae02a7,similarity,20,198,227,tt0343818,tt0407304,6,825
2,6,5ab0158ca4016e0001ae02a7,similarity,21,23,200,tt4972582,tt0209144,6,1270
2,6,5ab0158ca4016e0001ae02a7,similarity,22,290,37,tt0145487,tt0259324,3,1076
2,6,5ab0158ca4016e0001ae02a7,similarity,23,42,53,tt1049413,tt1323594,7,2195
2,6,5ab0158ca4016e0001ae02a7,similarity,24,3,235,tt0816711,tt0093773,5,1645
2,6,5ab0158ca4016e0001ae02a7,similarity,25,70,72,tt0120623,tt0096283,3,2096
2,6,5ab0158ca4016e0001ae02a7,similarity,26,164,219,tt0114369,tt0364569,5,1211
2,6,5ab0158ca4016e0001ae02a7,similarity,27,187,196,tt1670345,tt0240772,3,1460
2,6,5ab0158ca4016e0001ae02a7,similarity,28,198,197,tt0343818,tt0181689,5,1601
2,6,5ab0158ca4016e0001ae02a7,similarity,29,315,369,tt0217869,tt0119217,4,1622
2,6,5ab0158ca4016e0001ae02a7,similarity,30,177,178,tt0208092,tt0264464,6,2435
2,6,5ab0158ca4016e0001ae02a7,similarity,31,193,188,tt0120735,tt0116282,5,1276
2,6,5ab0158ca4016e0001ae02a7,similarity,32,356,289,tt0120201,tt3659388,6,1874
2,6,5ab0158ca4016e0001ae02a7,similarity,33,217,237,tt1219289,tt0361862,3,2365
2,6,5ab0158ca4016e0001ae02a7,similarity,34,75,57,tt0097757,tt0398286,5,3302
2,6,5ab0158ca4016e0001ae02a7,similarity,35,158,242,tt0486576,tt1431045,5,1829
2,6,5ab0158ca4016e0001ae02a7,similarity,36,322,122,tt1483013,tt0499549,3,2502
2,6,5ab0158ca4016e0001ae02a7,similarity,37,310,250,tt0083866,tt0119654,4,4469
2,6,5ab0158ca4016e0001ae02a7,similarity,38,99,144,tt0314331,tt0038650,6,1080
2,6,5ab0158ca4016e0001ae02a7,similarity,39,179,214,tt0066921,tt0114746,6,1155
2,6,5ab0158ca4016e0001ae02a7,similarity,40,154,93,tt2194499,tt1022603,3,850
2,6,5ab0158ca4016e0001ae02a7,similarity,41,31,39,tt0363547,tt1139797,6,1797
2,6,5ab0158ca4016e0001ae02a7,similarity,42,163,181,tt0068646,tt0086250,5,3356
2,6,5ab0158ca4016e0001ae02a7,similarity,43,108,105,tt0396269,tt0478311,7,2931
2,6,5ab0158ca4016e0001ae02a7,similarity,44,362,375,tt0361748,tt0093058,6,1967
2,6,5ab0158ca4016e0001ae02a7,similarity,45,54,44,tt0268380,tt0114709,6,3782
2,6,5ab0158ca4016e0001ae02a7,similarity,46,277,271,tt0091042,tt0088847,5,2382
2,6,5ab0158ca4016e0001ae02a7,similarity,47,58,195,tt2948356,tt1232829,4,1826
2,6,5ab0158ca4016e0001ae02a7,similarity,48,173,172,tt0105236,tt0099685,3,3375
2,6,5ab0158ca4016e0001ae02a7,similarity,49,27,20,tt0450385,tt0360486,3,1420
2,6,5ab0158ca4016e0001ae02a7,similarity,50,106,324,tt0446029,tt0448157,4,1949
2,6,5ab0158ca4016e0001ae02a7,similarity,51,119,112,tt0386588,tt0343660,7,2220
2,6,5ab0158ca4016e0001ae02a7,similarity,52,53,79,tt1323594,tt1436562,7,1929
2,6,5ab0158ca4016e0001ae02a7,similarity,53,124,137,tt0325980,tt0120616,5,2200
2,6,5ab0158ca4016e0001ae02a7,similarity,54,109,112,tt1632708,tt0343660,DontKnow,850
2,6,5ab0158ca4016e0001ae02a7,similarity,55,14,31,tt0084787,tt0363547,DontKnow,1270
2,6,5ab0158ca4016e0001ae02a7,similarity,56,284,159,tt0482571,tt0259711,3,962
2,6,5ab0158ca4016e0001ae02a7,similarity,57,351,341,tt3890160,tt3397884,2,1354
2,6,5ab0158ca4016e0001ae02a7,similarity,58,189,345,tt0780504,tt0455944,6,963
2,6,5ab0158ca4016e0001ae02a7,similarity,59,296,289,tt0062622,tt3659388,6,1536
2,6,5ab0158ca4016e0001ae02a7,similarity,60,336,354,tt0117500,tt0118880,5,2086
2,6,5ab0158ca4016e0001ae02a7,similarity,61,201,315,tt1130884,tt0217869,5,1740
2,6,5ab0158ca4016e0001ae02a7,similarity,62,189,200,tt0780504,tt0209144,6,4228
2,6,5ab0158ca4016e0001ae02a7,similarity,63,305,308,tt0319262,tt0120591,DontKnow,924
2,6,5ab0158ca4016e0001ae02a7,similarity,64,363,226,tt0120815,tt0887912,6,968
2,6,5ab0158ca4016e0001ae02a7,similarity,65,112,93,tt0343660,tt1022603,4,953
2,6,5ab0158ca4016e0001ae02a7,similarity,66,7,0,tt1457767,tt0081505,5,925
2,6,5ab0158ca4016e0001ae02a7,similarity,67,286,350,tt2015381,tt1037705,5,976
2,6,5ab0158ca4016e0001ae02a7,similarity,68,225,171,tt2911666,tt0266697,6,1165
2,6,5ab0158ca4016e0001ae02a7,similarity,69,50,48,tt0245429,tt0382932,3,1116
2,6,5ab0158ca4016e0001ae02a7,similarity,70,196,193,tt0240772,tt0120735,5,1313
2,6,5ab0158ca4016e0001ae02a7,similarity,71,122,303,tt0499549,tt1535108,7,1106
2,6,5ab0158ca4016e0001ae02a7,similarity,72,32,21,tt0134847,tt0884328,5,735
2,6,5ab0158ca4016e0001ae02a7,similarity,73,302,306,tt1840309,tt0800080,2,867
2,6,5ab0158ca4016e0001ae02a7,similarity,74,0,39,tt0081505,tt1139797,3,842
2,6,5ab0158ca4016e0001ae02a7,similarity,75,56,60,tt0441773,tt1217209,DontKnow,753
2,6,5ab0158ca4016e0001ae02a7,similarity,76,50,142,tt0245429,tt0032138,DontKnow,1491
2,6,5ab0158ca4016e0001ae02a7,similarity,77,57,51,tt0398286,tt2294629,7,1504
2,6,5ab0158ca4016e0001ae02a7,similarity,78,187,284,tt1670345,tt0482571,5,1700
2,6,5ab0158ca4016e0001ae02a7,similarity,79,1,2,tt0078748,tt0480249,4,1169
2,6,5ab0158ca4016e0001ae02a7,similarity,80,354,358,tt0118880,tt0187078,5,1767
2,6,5ab0158ca4016e0001ae02a7,similarity,81,97,71,tt0099487,tt0121164,6,899
2,6,5ab0158ca4016e0001ae02a7,similarity,82,313,238,tt0286106,tt1650062,6,1298
2,6,5ab0158ca4016e0001ae02a7,similarity,83,390,172,tt0112641,tt0099685,4,1188
2,6,5ab0158ca4016e0001ae02a7,similarity,84,214,118,tt0114746,tt0399201,4,1436
2,6,5ab0158ca4016e0001ae02a7,similarity,85,235,306,tt0093773,tt0800080,5,1488
2,6,5ab0158ca4016e0001ae02a7,similarity,86,109,105,tt1632708,tt0478311,7,1604
2,6,5ab0158ca4016e0001ae02a7,similarity,87,392,368,tt0790636,tt0268978,6,2804
2,6,5ab0158ca4016e0001ae02a7,similarity,88,213,211,tt0440963,tt1074638,5,1099
2,6,5ab0158ca4016e0001ae02a7,similarity,89,20,12,tt0360486,tt0070047,DontKnow,1085
2,6,5ab0158ca4016e0001ae02a7,similarity,90,186,333,tt0936501,tt0328107,3,2854
2,6,5ab0158ca4016e0001ae02a7,similarity,91,284,209,tt0482571,tt0947798,5,1212
2,6,5ab0158ca4016e0001ae02a7,similarity,92,358,351,tt0187078,tt3890160,6,1445
2,6,5ab0158ca4016e0001ae02a7,similarity,93,196,173,tt0240772,tt0105236,5,1013
2,6,5ab0158ca4016e0001ae02a7,similarity,94,336,213,tt0117500,tt0440963,3,2353
2,6,5ab0158ca4016e0001ae02a7,similarity,95,203,115,tt0167404,tt0052357,5,2018
2,6,5ab0158ca4016e0001ae02a7,similarity,96,321,136,tt0082971,tt0451279,3,890
2,6,5ab0158ca4016e0001ae02a7,similarity,97,44,258,tt0114709,tt0367594,5,2444
2,6,5ab0158ca4016e0001ae02a7,similarity,98,349,366,tt0472043,tt0112573,DontKnow,1500
2,6,5ab0158ca4016e0001ae02a7,similarity,99,75,258,tt0097757,tt0367594,5,2587
2,6,5ab0158ca4016e0001ae02a7,similarity,100,201,221,tt1130884,tt0289879,4,1146
2,6,5ab0158ca4016e0001ae02a7,similarity,101,100,93,tt0405422,tt1022603,5,2276
2,6,5ab0158ca4016e0001ae02a7,similarity,102,75,55,tt0097757,tt0101414,7,3650
2,6,5ab0158ca4016e0001ae02a7,similarity,103,340,304,tt0433035,tt0470752,5,1068
2,6,5ab0158ca4016e0001ae02a7,similarity,104,337,363,tt0213149,tt0120815,7,1050
2,6,5ab0158ca4016e0001ae02a7,similarity,105,244,266,tt1675434,tt0458352,4,1438
2,6,5ab0158ca4016e0001ae02a7,similarity,106,11,31,tt1259521,tt0363547,DontKnow,773
2,6,5ab0158ca4016e0001ae02a7,similarity,107,31,21,tt0363547,tt0884328,6,1068
2,6,5ab0158ca4016e0001ae02a7,similarity,108,39,8,tt1139797,tt0387564,3,986
2,6,5ab0158ca4016e0001ae02a7,similarity,109,206,222,tt0095016,tt1229238,6,1613
2,6,5ab0158ca4016e0001ae02a7,similarity,110,82,154,tt0338013,tt2194499,5,2455
2,6,5ab0158ca4016e0001ae02a7,similarity,111,86,141,tt0107048,tt0315327,6,1940
2,6,5ab0158ca4016e0001ae02a7,similarity,112,49,75,tt0126029,tt0097757,5,2482
2,6,5ab0158ca4016e0001ae02a7,similarity,113,189,190,tt0780504,tt0113277,4,1181
2,6,5ab0158ca4016e0001ae02a7,similarity,114,165,230,tt0102926,tt0047396,DontKnow,1596
2,6,5ab0158ca4016e0001ae02a7,similarity,115,4,201,tt0054215,tt1130884,6,1918
2,6,5ab0158ca4016e0001ae02a7,similarity,116,46,49,tt0892769,tt0126029,7,1973
2,6,5ab0158ca4016e0001ae02a7,similarity,117,90,302,tt0945513,tt1840309,5,2090
2,6,5ab0158ca4016e0001ae02a7,similarity,118,158,350,tt0486576,tt1037705,4,1434
2,6,5ab0158ca4016e0001ae02a7,similarity,119,127,145,tt1201607,tt0363771,4,3348
2,6,5ab0158ca4016e0001ae02a7,similarity,120,283,37,tt0848228,tt0259324,3,1337
2,6,5ab0158ca4016e0001ae02a7,similarity,121,119,84,tt0386588,tt0211915,DontKnow,1353
2,6,5ab0158ca4016e0001ae02a7,similarity,122,68,50,tt0107688,tt0245429,4,1989
2,6,5ab0158ca4016e0001ae02a7,similarity,123,289,121,tt3659388,tt0076759,5,1421
2,6,5ab0158ca4016e0001ae02a7,similarity,124,186,225,tt0936501,tt2911666,4,1421
2,6,5ab0158ca4016e0001ae02a7,similarity,125,90,246,tt0945513,tt2802144,4,1131
2,6,5ab0158ca4016e0001ae02a7,similarity,126,369,95,tt0119217,tt1343092,7,1231
2,6,5ab0158ca4016e0001ae02a7,similarity,127,200,175,tt0209144,tt0477348,3,1390
2,6,5ab0158ca4016e0001ae02a7,similarity,128,114,244,tt1193138,tt1675434,3,1763
2,6,5ab0158ca4016e0001ae02a7,similarity,129,82,200,tt0338013,tt0209144,DontKnow,1256
2,6,5ab0158ca4016e0001ae02a7,similarity,130,336,358,tt0117500,tt0187078,3,932
2,6,5ab0158ca4016e0001ae02a7,similarity,131,45,65,tt0198781,tt1490017,6,785
2,6,5ab0158ca4016e0001ae02a7,similarity,132,256,276,tt0057012,tt2788710,4,1118
2,6,5ab0158ca4016e0001ae02a7,similarity,133,28,12,tt1396484,tt0070047,3,772
2,6,5ab0158ca4016e0001ae02a7,similarity,134,140,57,tt0093779,tt0398286,5,785
2,6,5ab0158ca4016e0001ae02a7,similarity,135,32,7,tt0134847,tt1457767,7,700
2,6,5ab0158ca4016e0001ae02a7,similarity,136,200,219,tt0209144,tt0364569,DontKnow,948
2,6,5ab0158ca4016e0001ae02a7,similarity,137,350,302,tt1037705,tt1840309,2,1188
2,6,5ab0158ca4016e0001ae02a7,similarity,138,32,29,tt0134847,tt0120804,5,919
2,6,5ab0158ca4016e0001ae02a7,similarity,139,64,50,tt0103639,tt0245429,5,750
2,6,5ab0158ca4016e0001ae02a7,similarity,140,333,206,tt0328107,tt0095016,6,1035
2,6,5ab0158ca4016e0001ae02a7,similarity,141,247,89,tt0118799,tt0034583,6,1220
2,6,5ab0158ca4016e0001ae02a7,similarity,142,18,128,tt0167190,tt0770828,3,1949
2,6,5ab0158ca4016e0001ae02a7,similarity,143,161,290,tt0468569,tt0145487,5,1237
2,6,5ab0158ca4016e0001ae02a7,similarity,144,315,84,tt0217869,tt0211915,6,1146
2,6,5ab0158ca4016e0001ae02a7,similarity,145,258,127,tt0367594,tt1201607,2,2072
2,6,5ab0158ca4016e0001ae02a7,similarity,146,148,149,tt0120601,tt0389860,4,1333
2,6,5ab0158ca4016e0001ae02a7,similarity,147,5,30,tt0365748,tt1077368,3,2018
2,6,5ab0158ca4016e0001ae02a7,similarity,148,216,329,tt0073195,tt0360717,DontKnow,942
2,6,5ab0158ca4016e0001ae02a7,similarity,149,78,45,tt0837562,tt0198781,6,2881
2,6,5ab0158ca4016e0001ae02a7,similarity,150,330,327,tt5013056,tt2713180,5,1163
2,6,5ab0158ca4016e0001ae02a7,similarity,151,210,289,tt1136608,tt3659388,6,957
2,6,5ab0158ca4016e0001ae02a7,similarity,152,287,283,tt0371746,tt0848228,4,746
2,6,5ab0158ca4016e0001ae02a7,similarity,153,118,296,tt0399201,tt0062622,DontKnow,719
2,6,5ab0158ca4016e0001ae02a7,similarity,154,378,386,tt0405159,tt0095953,2,1385
2,6,5ab0158ca4016e0001ae02a7,similarity,155,244,85,tt1675434,tt1045658,6,816
2,6,5ab0158ca4016e0001ae02a7,similarity,156,145,142,tt0363771,tt0032138,5,1666
2,6,5ab0158ca4016e0001ae02a7,similarity,157,186,342,tt0936501,tt0944835,5,1006
2,6,5ab0158ca4016e0001ae02a7,similarity,158,86,82,tt0107048,tt0338013,6,1009
2,6,5ab0158ca4016e0001ae02a7,similarity,159,41,73,tt0266543,tt1192628,7,2251
2,6,5ab0158ca4016e0001ae02a7,similarity,160,246,225,tt2802144,tt2911666,5,1605
2,6,5ab0158ca4016e0001ae02a7,similarity,161,191,212,tt1276104,tt0083658,3,1197
2,6,5ab0158ca4016e0001ae02a7,similarity,162,272,259,tt1231583,tt1723121,6,1788
2,6,5ab0158ca4016e0001ae02a7,similarity,163,392,379,tt0790636,tt1285016,5,4404
2,6,5ab0158ca4016e0001ae02a7,similarity,164,32,8,tt0134847,tt0387564,6,7793
2,6,5ab0158ca4016e0001ae02a7,similarity,165,306,158,tt0800080,tt0486576,3,908
2,6,5ab0158ca4016e0001ae02a7,similarity,166,86,93,tt0107048,tt1022603,3,3873
2,6,5ab0158ca4016e0001ae02a7,similarity,167,9,29,tt0289043,tt0120804,7,2518
2,6,5ab0158ca4016e0001ae02a7,similarity,168,8,137,tt0387564,tt0120616,4,2721
2,6,5ab0158ca4016e0001ae02a7,similarity,169,272,273,tt1231583,tt0910936,7,1166
2,6,5ab0158ca4016e0001ae02a7,similarity,170,252,306,tt0478970,tt0800080,4,4641
2,6,5ab0158ca4016e0001ae02a7,similarity,171,382,375,tt0078788,tt0093058,5,3676
2,6,5ab0158ca4016e0001ae02a7,similarity,172,143,222,tt0493464,tt1229238,4,1246
2,6,5ab0158ca4016e0001ae02a7,similarity,173,177,239,tt0208092,tt0317740,3,1609
2,6,5ab0158ca4016e0001ae02a7,similarity,174,142,68,tt0032138,tt0107688,3,5270
2,6,5ab0158ca4016e0001ae02a7,similarity,175,121,298,tt0076759,tt1318514,3,9554
2,6,5ab0158ca4016e0001ae02a7,similarity,176,242,291,tt1431045,tt1877832,5,893
2,6,5ab0158ca4016e0001ae02a7,similarity,177,16,156,tt0162661,tt0320691,6,363
2,6,5ab0158ca4016e0001ae02a7,similarity,178,129,296,tt0800369,tt0062622,6,1859
2,6,5ab0158ca4016e0001ae02a7,similarity,179,254,99,tt0449059,tt0314331,3,924
2,6,5ab0158ca4016e0001ae02a7,similarity,180,229,159,tt2872718,tt0259711,5,855
2,6,5ab0158ca4016e0001ae02a7,similarity,181,341,182,tt3397884,tt0317248,4,753
2,6,5ab0158ca4016e0001ae02a7,similarity,182,73,42,tt1192628,tt1049413,4,718
2,6,5ab0158ca4016e0001ae02a7,similarity,183,88,383,tt0162222,tt0758758,6,524
2,6,5ab0158ca4016e0001ae02a7,similarity,184,306,287,tt0800080,tt0371746,DontKnow,730
2,6,5ab0158ca4016e0001ae02a7,similarity,185,69,71,tt0347149,tt0121164,5,1484
2,6,5ab0158ca4016e0001ae02a7,similarity,186,302,292,tt1840309,tt0418279,4,1104
2,6,5ab0158ca4016e0001ae02a7,similarity,187,297,198,tt0116629,tt0343818,4,1139
2,6,5ab0158ca4016e0001ae02a7,similarity,188,219,15,tt0364569,tt0230600,6,560
2,6,5ab0158ca4016e0001ae02a7,similarity,189,24,5,tt0116367,tt0365748,7,935
2,6,5ab0158ca4016e0001ae02a7,similarity,190,195,66,tt1232829,tt0462538,5,788
2,6,5ab0158ca4016e0001ae02a7,similarity,191,118,280,tt0399201,tt1375666,4,686
2,6,5ab0158ca4016e0001ae02a7,similarity,192,75,46,tt0097757,tt0892769,5,1941
2,6,5ab0158ca4016e0001ae02a7,similarity,193,315,221,tt0217869,tt0289879,4,888
2,6,5ab0158ca4016e0001ae02a7,similarity,194,131,148,tt1637725,tt0120601,DontKnow,2260
2,6,5ab0158ca4016e0001ae02a7,similarity,195,33,8,tt0185937,tt0387564,4,1148
2,6,5ab0158ca4016e0001ae02a7,similarity,196,82,85,tt0338013,tt1045658,3,1325
2,6,5ab0158ca4016e0001ae02a7,similarity,197,148,270,tt0120601,tt0357413,2,1194
2,6,5ab0158ca4016e0001ae02a7,similarity,198,27,28,tt0450385,tt1396484,6,856
2,6,5ab0158ca4016e0001ae02a7,similarity,199,33,26,tt0185937,tt5052448,5,903
2,6,5ab0158ca4016e0001ae02a7,similarity,200,124,153,tt0325980,tt0473075,7,4016
2,6,5ab0158ca4016e0001ae02a7,similarity,201,319,210,tt0212720,tt1136608,5,1709
2,6,5ab0158ca4016e0001ae02a7,similarity,202,64,258,tt0103639,tt0367594,3,5251
2,6,5ab0158ca4016e0001ae02a7,similarity,203,213,219,tt0440963,tt0364569,5,1397
2,6,5ab0158ca4016e0001ae02a7,similarity,204,29,14,tt0120804,tt0084787,DontKnow,1504
2,6,5ab0158ca4016e0001ae02a7,similarity,205,196,177,tt0240772,tt0208092,5,1521
2,6,5ab0158ca4016e0001ae02a7,similarity,206,283,252,tt0848228,tt0478970,3,1133
3,1,598f579ecceb0f0001b39918,similarity,0,237,221,tt0361862,tt0289879,4,13499
3,1,598f579ecceb0f0001b39918,similarity,1,25,0,tt1591095,tt0081505,5,14687
3,1,598f579ecceb0f0001b39918,similarity,2,391,369,tt1291584,tt0119217,3,6444
3,1,598f579ecceb0f0001b39918,similarity,3,264,256,tt0443453,tt0057012,DontKnow,6533
3,1,598f579ecceb0f0001b39918,similarity,4,21,8,tt0884328,tt0387564,5,9936
3,1,598f579ecceb0f0001b39918,similarity,5,263,195,tt0942385,tt1232829,7,10798
3,1,598f579ecceb0f0001b39918,similarity,6,363,362,tt0120815,tt0361748,7,43033
3,1,598f579ecceb0f0001b39918,similarity,7,2,300,tt0480249,tt1663662,4,7718
3,1,598f579ecceb0f0001b39918,similarity,8,44,73,tt0114709,tt1192628,6,5282
3,1,598f579ecceb0f0001b39918,similarity,9,198,280,tt0343818,tt1375666,7,7072
3,1,598f579ecceb0f0001b39918,similarity,10,121,202,tt0076759,tt0103064,6,5177
3,1,598f579ecceb0f0001b39918,similarity,11,37,136,tt0259324,tt0451279,7,4462
3,1,598f579ecceb0f0001b39918,similarity,12,59,41,tt2245084,tt0266543,6,8022
3,1,598f579ecceb0f0001b39918,similarity,13,237,203,tt0361862,tt0167404,4,34263
3,1,598f579ecceb0f0001b39918,similarity,14,302,158,tt1840309,tt0486576,6,5240
3,1,598f579ecceb0f0001b39918,similarity,15,133,37,tt1386697,tt0259324,7,8505
3,1,598f579ecceb0f0001b39918,similarity,16,19,30,tt0110148,tt1077368,5,11247
3,1,598f579ecceb0f0001b39918,similarity,17,353,230,tt0053125,tt0047396,DontKnow,3886
3,1,598f579ecceb0f0001b39918,similarity,18,248,291,tt1250777,tt1877832,4,10835
3,1,598f579ecceb0f0001b39918,similarity,19,84,369,tt0211915,tt0119217,5,5917
3,1,598f579ecceb0f0001b39918,similarity,20,352,139,tt1735898,tt1014759,7,5317
3,1,598f579ecceb0f0001b39918,similarity,21,61,62,tt1772341,tt0351283,6,2616
3,1,598f579ecceb0f0001b39918,similarity,22,0,8,tt0081505,tt0387564,6,32532
3,1,598f579ecceb0f0001b39918,similarity,23,148,241,tt0120601,tt0120382,6,16615
3,1,598f579ecceb0f0001b39918,similarity,24,222,336,tt1229238,tt0117500,6,9044
3,1,598f579ecceb0f0001b39918,similarity,25,364,247,tt0108052,tt0118799,7,4076
3,1,598f579ecceb0f0001b39918,similarity,26,283,18,tt0848228,tt0167190,7,2515
3,1,598f579ecceb0f0001b39918,similarity,27,9,8,tt0289043,tt0387564,4,5636
3,1,598f579ecceb0f0001b39918,similarity,28,197,281,tt0181689,tt0133093,7,4319
3,1,598f579ecceb0f0001b39918,similarity,29,195,273,tt1232829,tt0910936,7,6458
3,1,598f579ecceb0f0001b39918,similarity,30,22,8,tt0117571,tt0387564,4,7399
3,1,598f579ecceb0f0001b39918,similarity,31,159,201,tt0259711,tt1130884,6,5128
3,1,598f579ecceb0f0001b39918,similarity,32,122,118,tt0499549,tt0399201,5,5716
3,1,598f579ecceb0f0001b39918,similarity,33,193,178,tt0120735,tt0264464,4,5393
3,1,598f579ecceb0f0001b39918,similarity,34,317,214,tt0238380,tt0114746,5,7605
3,1,598f579ecceb0f0001b39918,similarity,36,46,43,tt0892769,tt0110357,6,9435
3,1,598f579ecceb0f0001b39918,similarity,37,20,25,tt0360486,tt1591095,7,6537
3,1,598f579ecceb0f0001b39918,similarity,38,43,64,tt0110357,tt0103639,7,2455
3,1,598f579ecceb0f0001b39918,similarity,39,54,41,tt0268380,tt0266543,7,1491
3,1,598f579ecceb0f0001b39918,similarity,40,341,143,tt3397884,tt0493464,DontKnow,7302
3,1,598f579ecceb0f0001b39918,similarity,41,242,129,tt1431045,tt0800369,6,4916
3,1,598f579ecceb0f0001b39918,similarity,42,89,113,tt0034583,tt2582846,DontKnow,4675
3,1,598f579ecceb0f0001b39918,similarity,43,264,66,tt0443453,tt0462538,2,5011
3,1,598f579ecceb0f0001b39918,similarity,44,43,140,tt0110357,tt0093779,4,6546
3,1,598f579ecceb0f0001b39918,similarity,45,292,283,tt0418279,tt0848228,6,5011
3,1,598f579ecceb0f0001b39918,similarity,46,42,60,tt1049413,tt1217209,6,4748
3,1,598f579ecceb0f0001b39918,similarity,47,91,320,tt0332452,tt0172495,7,1950
3,1,598f579ecceb0f0001b39918,similarity,48,122,298,tt0499549,tt1318514,6,8186
3,1,598f579ecceb0f0001b39918,similarity,49,395,374,tt1454029,tt1504320,5,7699
3,1,598f579ecceb0f0001b39918,similarity,50,139,55,tt1014759,tt0101414,7,3823
3,1,598f579ecceb0f0001b39918,similarity,51,219,165,tt0364569,tt0102926,5,4251
3,1,598f579ecceb0f0001b39918,similarity,52,315,209,tt0217869,tt0947798,6,4573
3,1,598f579ecceb0f0001b39918,similarity,53,86,131,tt0107048,tt1637725,5,6456
3,1,598f579ecceb0f0001b39918,similarity,54,317,198,tt0238380,tt0343818,6,4013
3,1,598f579ecceb0f0001b39918,similarity,55,137,77,tt0120616,tt0983193,4,4864
3,1,598f579ecceb0f0001b39918,similarity,56,381,395,tt2024544,tt1454029,DontKnow,2829
3,1,598f579ecceb0f0001b39918,similarity,57,37,306,tt0259324,tt0800080,6,4192
3,1,598f579ecceb0f0001b39918,similarity,58,68,13,tt0107688,tt0408236,6,7719
3,1,598f579ecceb0f0001b39918,similarity,59,203,209,tt0167404,tt0947798,2,5256
3,1,598f579ecceb0f0001b39918,similarity,60,242,252,tt1431045,tt0478970,7,2675
3,1,598f579ecceb0f0001b39918,similarity,61,291,158,tt1877832,tt0486576,7,4726
3,1,598f579ecceb0f0001b39918,similarity,62,148,187,tt0120601,tt1670345,6,3007
3,1,598f579ecceb0f0001b39918,similarity,63,177,188,tt0208092,tt0116282,DontKnow,3954
3,1,598f579ecceb0f0001b39918,similarity,64,191,219,tt1276104,tt0364569,DontKnow,4445
3,1,598f579ecceb0f0001b39918,similarity,65,292,227,tt0418279,tt0407304,6,4871
3,1,598f579ecceb0f0001b39918,similarity,66,296,293,tt0062622,tt0796366,DontKnow,4803
3,1,598f579ecceb0f0001b39918,similarity,67,263,106,tt0942385,tt0446029,DontKnow,4771
3,1,598f579ecceb0f0001b39918,similarity,68,51,49,tt2294629,tt0126029,6,5318
3,1,598f579ecceb0f0001b39918,similarity,69,232,169,tt0139654,tt0114814,5,5077
3,1,598f579ecceb0f0001b39918,similarity,70,285,191,tt0434409,tt1276104,DontKnow,7410
3,1,598f579ecceb0f0001b39918,similarity,71,169,189,tt0114814,tt0780504,5,3923
3,1,598f579ecceb0f0001b39918,similarity,72,184,160,tt0050083,tt0111161,DontKnow,2748
3,1,598f579ecceb0f0001b39918,similarity,73,127,157,tt1201607,tt0486655,6,4038
3,1,598f579ecceb0f0001b39918,similarity,74,85,99,tt1045658,tt0314331,7,7523
3,1,598f579ecceb0f0001b39918,similarity,75,386,388,tt0095953,tt0454921,6,5033
3,1,598f579ecceb0f0001b39918,similarity,76,38,28,tt0384537,tt1396484,5,4244
3,1,598f579ecceb0f0001b39918,similarity,77,11,14,tt1259521,tt0084787,DontKnow,3376
3,1,598f579ecceb0f0001b39918,similarity,78,65,62,tt1490017,tt0351283,6,2901
3,1,598f579ecceb0f0001b39918,similarity,79,149,102,tt0389860,tt1605783,DontKnow,4771
3,1,598f579ecceb0f0001b39918,similarity,80,207,303,tt1454468,tt1535108,5,4635
3,1,598f579ecceb0f0001b39918,similarity,81,50,45,tt0245429,tt0198781,6,4954
3,1,598f579ecceb0f0001b39918,similarity,82,263,324,tt0942385,tt0448157,7,3585
3,1,598f579ecceb0f0001b39918,similarity,83,93,119,tt1022603,tt0386588,5,5820
3,1,598f579ecceb0f0001b39918,similarity,84,131,149,tt1637725,tt0389860,7,2505
3,1,598f579ecceb0f0001b39918,similarity,85,129,252,tt0800369,tt0478970,7,1929
3,1,598f579ecceb0f0001b39918,similarity,86,8,17,tt0387564,tt0298130,7,2218
3,1,598f579ecceb0f0001b39918,similarity,87,181,390,tt0086250,tt0112641,DontKnow,3026
3,1,598f579ecceb0f0001b39918,similarity,88,271,251,tt0088847,tt0467406,DontKnow,2558
3,1,598f579ecceb0f0001b39918,similarity,89,189,236,tt0780504,tt0369339,4,5001
3,1,598f579ecceb0f0001b39918,similarity,90,254,244,tt0449059,tt1675434,DontKnow,3807
3,1,598f579ecceb0f0001b39918,similarity,91,235,137,tt0093773,tt0120616,7,7387
3,1,598f579ecceb0f0001b39918,similarity,92,356,212,tt0120201,tt0083658,6,3851
3,1,598f579ecceb0f0001b39918,similarity,93,175,190,tt0477348,tt0113277,DontKnow,6864
3,1,598f579ecceb0f0001b39918,similarity,94,206,334,tt0095016,tt0111257,7,4727
3,1,598f579ecceb0f0001b39918,similarity,95,212,281,tt0083658,tt0133093,6,4406
3,1,598f579ecceb0f0001b39918,similarity,96,303,298,tt1535108,tt1318514,6,3375
3,1,598f579ecceb0f0001b39918,similarity,97,27,7,tt0450385,tt1457767,7,5789
3,1,598f579ecceb0f0001b39918,similarity,98,252,133,tt0478970,tt1386697,7,2166
3,1,598f579ecceb0f0001b39918,similarity,99,261,108,tt0163651,tt0396269,7,2398
3,1,598f579ecceb0f0001b39918,similarity,100,90,225,tt0945513,tt2911666,3,5806
3,1,598f579ecceb0f0001b39918,similarity,101,305,311,tt0319262,tt1190080,7,3489
3,1,598f579ecceb0f0001b39918,similarity,102,8,235,tt0387564,tt0093773,3,4631
3,1,598f579ecceb0f0001b39918,similarity,103,303,202,tt1535108,tt0103064,6,22677
3,1,598f579ecceb0f0001b39918,similarity,104,48,63,tt0382932,tt0317219,6,2588
3,1,598f579ecceb0f0001b39918,similarity,105,175,232,tt0477348,tt0139654,DontKnow,3395
3,1,598f579ecceb0f0001b39918,similarity,106,212,316,tt0083658,tt1104001,6,4322
3,1,598f579ecceb0f0001b39918,similarity,107,368,379,tt0268978,tt1285016,5,4246
3,1,598f579ecceb0f0001b39918,similarity,108,34,261,tt1588173,tt0163651,7,4778
3,1,598f579ecceb0f0001b39918,similarity,109,196,278,tt0240772,tt0887883,DontKnow,4894
3,1,598f579ecceb0f0001b39918,similarity,110,121,346,tt0076759,tt0379786,DontKnow,3003
3,1,598f579ecceb0f0001b39918,similarity,111,176,237,tt2267998,tt0361862,6,7494
3,1,598f579ecceb0f0001b39918,similarity,112,38,8,tt0384537,tt0387564,6,4807
3,1,598f579ecceb0f0001b39918,similarity,113,292,289,tt0418279,tt3659388,4,9627
3,1,598f579ecceb0f0001b39918,similarity,114,241,380,tt0120382,tt2582802,DontKnow,3741
3,1,598f579ecceb0f0001b39918,similarity,115,335,75,tt1587310,tt0097757,5,9730
3,1,598f579ecceb0f0001b39918,similarity,116,86,269,tt0107048,tt0087332,5,6329
3,1,598f579ecceb0f0001b39918,similarity,117,226,375,tt0887912,tt0093058,DontKnow,4075
3,1,598f579ecceb0f0001b39918,similarity,118,21,11,tt0884328,tt1259521,6,3976
3,1,598f579ecceb0f0001b39918,similarity,119,342,90,tt0944835,tt0945513,4,5055
3,1,598f579ecceb0f0001b39918,similarity,120,97,50,tt0099487,tt0245429,4,4094
3,1,598f579ecceb0f0001b39918,similarity,121,80,81,tt0109830,tt0120338,2,4452
3,1,598f579ecceb0f0001b39918,similarity,122,4,219,tt0054215,tt0364569,DontKnow,2474
3,1,598f579ecceb0f0001b39918,similarity,123,171,333,tt0266697,tt0328107,4,9705
3,1,598f579ecceb0f0001b39918,similarity,124,49,64,tt0126029,tt0103639,7,2692
3,1,598f579ecceb0f0001b39918,similarity,125,294,14,tt1446714,tt0084787,DontKnow,3337
3,1,598f579ecceb0f0001b39918,similarity,126,135,290,tt1211837,tt0145487,7,3125
3,1,598f579ecceb0f0001b39918,similarity,127,287,290,tt0371746,tt0145487,7,1465
3,1,598f579ecceb0f0001b39918,similarity,128,282,289,tt0816692,tt3659388,7,1506
3,1,598f579ecceb0f0001b39918,similarity,129,86,34,tt0107048,tt1588173,5,3027
3,1,598f579ecceb0f0001b39918,similarity,130,146,141,tt0110475,tt0315327,6,9453
3,1,598f579ecceb0f0001b39918,similarity,131,143,224,tt0493464,tt2872732,6,6712
3,1,598f579ecceb0f0001b39918,similarity,132,80,381,tt0109830,tt2024544,DontKnow,3133
3,1,598f579ecceb0f0001b39918,similarity,133,211,354,tt1074638,tt0118880,4,5158
3,1,598f579ecceb0f0001b39918,similarity,134,260,94,tt3783958,tt1570728,DontKnow,3294
3,1,598f579ecceb0f0001b39918,similarity,135,157,69,tt0486655,tt0347149,DontKnow,8211
3,1,598f579ecceb0f0001b39918,similarity,136,356,318,tt0120201,tt0100802,4,5533
3,1,598f579ecceb0f0001b39918,similarity,137,198,212,tt0343818,tt0083658,4,2936
3,1,598f579ecceb0f0001b39918,similarity,138,356,297,tt0120201,tt0116629,5,4467
3,1,598f579ecceb0f0001b39918,similarity,139,301,308,tt0119116,tt0120591,6,4756
3,1,598f579ecceb0f0001b39918,similarity,140,357,91,tt0320661,tt0332452,7,3346
3,1,598f579ecceb0f0001b39918,similarity,141,309,297,tt0831387,tt0116629,6,4104
3,1,598f579ecceb0f0001b39918,similarity,142,102,260,tt1605783,tt3783958,DontKnow,2265
3,1,598f579ecceb0f0001b39918,similarity,143,8,14,tt0387564,tt0084787,DontKnow,2349
3,1,598f579ecceb0f0001b39918,similarity,144,4,203,tt0054215,tt0167404,2,6952
3,1,598f579ecceb0f0001b39918,similarity,145,3,32,tt0816711,tt0134847,DontKnow,5268
3,1,598f579ecceb0f0001b39918,similarity,146,359,358,tt0106977,tt0187078,6,5154
3,1,598f579ecceb0f0001b39918,similarity,147,289,308,tt3659388,tt0120591,5,9841
3,1,598f579ecceb0f0001b39918,similarity,148,385,182,tt0469494,tt0317248,DontKnow,4617
3,1,598f579ecceb0f0001b39918,similarity,149,41,53,tt0266543,tt1323594,6,3134
3,1,598f579ecceb0f0001b39918,similarity,150,169,173,tt0114814,tt0105236,6,3302
3,1,598f579ecceb0f0001b39918,similarity,151,219,394,tt0364569,tt1568346,DontKnow,5599
3,1,598f579ecceb0f0001b39918,similarity,152,356,227,tt0120201,tt0407304,4,4121
3,1,598f579ecceb0f0001b39918,similarity,153,343,342,tt0790724,tt0944835,DontKnow,5516
3,1,598f579ecceb0f0001b39918,similarity,154,391,380,tt1291584,tt2582802,DontKnow,2446
3,1,598f579ecceb0f0001b39918,similarity,155,185,343,tt0988045,tt0790724,5,8282
3,1,598f579ecceb0f0001b39918,similarity,156,193,180,tt0120735,tt0118715,DontKnow,4475
3,1,598f579ecceb0f0001b39918,similarity,157,327,363,tt2713180,tt0120815,7,3937
3,1,598f579ecceb0f0001b39918,similarity,158,5,22,tt0365748,tt0117571,7,3002
3,1,598f579ecceb0f0001b39918,similarity,159,46,142,tt0892769,tt0032138,4,4062
3,1,598f579ecceb0f0001b39918,similarity,160,283,248,tt0848228,tt1250777,6,2445
3,1,598f579ecceb0f0001b39918,similarity,161,248,128,tt1250777,tt0770828,6,2470
3,1,598f579ecceb0f0001b39918,similarity,162,158,292,tt0486576,tt0418279,7,3261
3,1,598f579ecceb0f0001b39918,similarity,163,337,382,tt0213149,tt0078788,DontKnow,7537
3,1,598f579ecceb0f0001b39918,similarity,164,332,222,tt1320253,tt1229238,5,4304
3,1,598f579ecceb0f0001b39918,similarity,165,191,221,tt1276104,tt0289879,DontKnow,5082
3,1,598f579ecceb0f0001b39918,similarity,166,55,259,tt0101414,tt1723121,2,47461
3,1,598f579ecceb0f0001b39918,similarity,167,244,80,tt1675434,tt0109830,DontKnow,4944
3,1,598f579ecceb0f0001b39918,similarity,168,166,173,tt0407887,tt0105236,6,2906
3,1,598f579ecceb0f0001b39918,similarity,169,69,72,tt0347149,tt0096283,DontKnow,5763
3,1,598f579ecceb0f0001b39918,similarity,170,317,179,tt0238380,tt0066921,6,3320
3,1,598f579ecceb0f0001b39918,similarity,171,334,358,tt0111257,tt0187078,7,2301
3,1,598f579ecceb0f0001b39918,similarity,172,141,148,tt0315327,tt0120601,6,3099
3,1,598f579ecceb0f0001b39918,similarity,173,191,303,tt1276104,tt1535108,DontKnow,2667
3,1,598f579ecceb0f0001b39918,similarity,174,60,41,tt1217209,tt0266543,6,2224
3,1,598f579ecceb0f0001b39918,similarity,175,349,126,tt0472043,tt0416449,6,4763
3,1,598f579ecceb0f0001b39918,similarity,176,138,276,tt1245492,tt2788710,5,6117
3,1,598f579ecceb0f0001b39918,similarity,177,57,49,tt0398286,tt0126029,6,1806
3,1,598f579ecceb0f0001b39918,similarity,178,115,230,tt0052357,tt0047396,DontKnow,2593
3,1,598f579ecceb0f0001b39918,similarity,179,279,86,tt1748122,tt0107048,2,5068
3,1,598f579ecceb0f0001b39918,similarity,180,34,6,tt1588173,tt1156398,DontKnow,2765
3,1,598f579ecceb0f0001b39918,similarity,181,336,171,tt0117500,tt0266697,5,4963
3,1,598f579ecceb0f0001b39918,similarity,182,296,121,tt0062622,tt0076759,DontKnow,3003
3,1,598f579ecceb0f0001b39918,similarity,183,194,398,tt0119488,tt0217505,DontKnow,2255
3,1,598f579ecceb0f0001b39918,similarity,184,230,159,tt0047396,tt0259711,DontKnow,2137
3,1,598f579ecceb0f0001b39918,similarity,185,18,290,tt0167190,tt0145487,7,1960
3,1,598f579ecceb0f0001b39918,similarity,186,3,8,tt0816711,tt0387564,4,3730
3,1,598f579ecceb0f0001b39918,similarity,187,391,378,tt1291584,tt0405159,6,3501
3,1,598f579ecceb0f0001b39918,similarity,188,151,54,tt0113497,tt0268380,4,3847
3,1,598f579ecceb0f0001b39918,similarity,189,291,302,tt1877832,tt1840309,4,4009
3,1,598f579ecceb0f0001b39918,similarity,190,235,39,tt0093773,tt1139797,3,3234
3,1,598f579ecceb0f0001b39918,similarity,191,8,23,tt0387564,tt4972582,5,9035
3,1,598f579ecceb0f0001b39918,similarity,192,292,318,tt0418279,tt0100802,4,2921
3,1,598f579ecceb0f0001b39918,similarity,193,67,74,tt0119698,tt0120762,4,5475
3,1,598f579ecceb0f0001b39918,similarity,194,187,239,tt1670345,tt0317740,3,4791
3,1,598f579ecceb0f0001b39918,similarity,195,303,118,tt1535108,tt0399201,DontKnow,3017
3,1,598f579ecceb0f0001b39918,similarity,196,198,318,tt0343818,tt0100802,5,6138
3,1,598f579ecceb0f0001b39918,similarity,197,299,304,tt2543164,tt0470752,DontKnow,2530
3,1,598f579ecceb0f0001b39918,similarity,198,100,109,tt0405422,tt1632708,3,6634
3,1,598f579ecceb0f0001b39918,similarity,199,170,225,tt0110413,tt2911666,6,4463
3,1,598f579ecceb0f0001b39918,similarity,200,359,343,tt0106977,tt0790724,DontKnow,4306
3,1,598f579ecceb0f0001b39918,similarity,201,319,340,tt0212720,tt0433035,5,4214
3,1,598f579ecceb0f0001b39918,similarity,202,4,165,tt0054215,tt0102926,6,2768
3,1,598f579ecceb0f0001b39918,similarity,203,32,31,tt0134847,tt0363547,DontKnow,3169
3,1,598f579ecceb0f0001b39918,similarity,204,243,272,tt1119646,tt1231583,7,2829
3,1,598f579ecceb0f0001b39918,similarity,205,286,289,tt2015381,tt3659388,4,3107
3,1,598f579ecceb0f0001b39918,similarity,206,46,64,tt0892769,tt0103639,4,3401
4,4,58e20f50a9be590001280342,similarity,0,89,184,tt0034583,tt0050083,DontKnow,7434
4,4,58e20f50a9be590001280342,similarity,1,1,309,tt0078748,tt0831387,4,2556
4,4,58e20f50a9be590001280342,similarity,2,283,128,tt0848228,tt0770828,DontKnow,2287
4,4,58e20f50a9be590001280342,similarity,3,140,155,tt0093779,tt0190332,1,3095
4,4,58e20f50a9be590001280342,similarity,4,342,246,tt0944835,tt2802144,DontKnow,1822
4,4,58e20f50a9be590001280342,similarity,5,67,50,tt0119698,tt0245429,3,2018
4,4,58e20f50a9be590001280342,similarity,6,43,75,tt0110357,tt0097757,5,2098
4,4,58e20f50a9be590001280342,similarity,7,312,336,tt0119094,tt0117500,DontKnow,1849
4,4,58e20f50a9be590001280342,similarity,8,206,213,tt0095016,tt0440963,3,2184
4,4,58e20f50a9be590001280342,similarity,9,287,158,tt0371746,tt0486576,4,2068
4,4,58e20f50a9be590001280342,similarity,10,21,3,tt0884328,tt0816711,DontKnow,1549
4,4,58e20f50a9be590001280342,similarity,11,129,150,tt0800369,tt0800320,DontKnow,1405
4,4,58e20f50a9be590001280342,similarity,12,172,181,tt0099685,tt0086250,DontKnow,931
4,4,58e20f50a9be590001280342,similarity,13,36,8,tt0195714,tt0387564,5,4422
4,4,58e20f50a9be590001280342,similarity,14,105,93,tt0478311,tt1022603,DontKnow,3202
4,4,58e20f50a9be590001280342,similarity,15,193,177,tt0120735,tt0208092,DontKnow,1739
4,4,58e20f50a9be590001280342,similarity,16,301,32,tt0119116,tt0134847,DontKnow,2278
4,4,58e20f50a9be590001280342,similarity,17,26,12,tt5052448,tt0070047,2,4058
4,4,58e20f50a9be590001280342,similarity,18,14,300,tt0084787,tt1663662,DontKnow,3062
4,4,58e20f50a9be590001280342,similarity,19,112,117,tt0343660,tt0212338,DontKnow,2153
4,4,58e20f50a9be590001280342,similarity,20,322,40,tt1483013,tt0910970,DontKnow,910
4,4,58e20f50a9be590001280342,similarity,21,69,151,tt0347149,tt0113497,DontKnow,891
4,4,58e20f50a9be590001280342,similarity,22,67,157,tt0119698,tt0486655,DontKnow,2683
4,4,58e20f50a9be590001280342,similarity,23,0,15,tt0081505,tt0230600,DontKnow,799
4,4,58e20f50a9be590001280342,similarity,24,50,127,tt0245429,tt1201607,DontKnow,861
4,4,58e20f50a9be590001280342,similarity,25,73,59,tt1192628,tt2245084,DontKnow,1860
4,4,58e20f50a9be590001280342,similarity,26,370,376,tt0180093,tt0117951,DontKnow,1724
4,4,58e20f50a9be590001280342,similarity,27,348,171,tt0293662,tt0266697,DontKnow,1584
4,4,58e20f50a9be590001280342,similarity,28,196,178,tt0240772,tt0264464,6,2893
4,4,58e20f50a9be590001280342,similarity,29,154,112,tt2194499,tt0343660,DontKnow,1894
4,4,58e20f50a9be590001280342,similarity,30,10,1,tt1060277,tt0078748,DontKnow,1317
4,4,58e20f50a9be590001280342,similarity,31,175,345,tt0477348,tt0455944,DontKnow,4592
4,4,58e20f50a9be590001280342,similarity,32,296,207,tt0062622,tt1454468,DontKnow,620
4,4,58e20f50a9be590001280342,similarity,33,387,385,tt1800241,tt0469494,DontKnow,495
4,4,58e20f50a9be590001280342,similarity,34,70,258,tt0120623,tt0367594,DontKnow,911
4,4,58e20f50a9be590001280342,similarity,35,3,29,tt0816711,tt0120804,DontKnow,532
4,4,58e20f50a9be590001280342,similarity,36,30,16,tt1077368,tt0162661,DontKnow,408
4,4,58e20f50a9be590001280342,similarity,37,21,29,tt0884328,tt0120804,DontKnow,349
4,4,58e20f50a9be590001280342,similarity,38,341,194,tt3397884,tt0119488,DontKnow,642
4,4,58e20f50a9be590001280342,similarity,39,222,334,tt1229238,tt0111257,DontKnow,697
4,4,58e20f50a9be590001280342,similarity,40,149,269,tt0389860,tt0087332,1,12148
4,4,58e20f50a9be590001280342,similarity,41,290,252,tt0145487,tt0478970,4,1646
4,4,58e20f50a9be590001280342,similarity,42,260,109,tt3783958,tt1632708,DontKnow,2102
4,4,58e20f50a9be590001280342,similarity,43,143,185,tt0493464,tt0988045,DontKnow,10550
4,4,58e20f50a9be590001280342,similarity,44,55,51,tt0101414,tt2294629,3,1952
4,4,58e20f50a9be590001280342,similarity,45,88,377,tt0162222,tt1663202,5,1916
4,4,58e20f50a9be590001280342,similarity,46,272,131,tt1231583,tt1637725,4,2636
4,4,58e20f50a9be590001280342,similarity,47,75,139,tt0097757,tt1014759,3,1910
4,4,58e20f50a9be590001280342,similarity,48,392,388,tt0790636,tt0454921,DontKnow,1875
4,4,58e20f50a9be590001280342,similarity,49,365,271,tt0169547,tt0088847,DontKnow,963
4,4,58e20f50a9be590001280342,similarity,50,195,347,tt1232829,tt1245526,DontKnow,574
4,4,58e20f50a9be590001280342,similarity,51,171,334,tt0266697,tt0111257,DontKnow,391
4,4,58e20f50a9be590001280342,similarity,52,390,163,tt0112641,tt0068646,DontKnow,359
4,4,58e20f50a9be590001280342,similarity,53,136,283,tt0451279,tt0848228,DontKnow,384
4,4,58e20f50a9be590001280342,similarity,54,86,152,tt0107048,tt0119528,DontKnow,501
4,4,58e20f50a9be590001280342,similarity,55,238,297,tt1650062,tt0116629,DontKnow,150
4,4,58e20f50a9be590001280342,similarity,56,79,52,tt1436562,tt2096673,DontKnow,460
4,4,58e20f50a9be590001280342,similarity,57,114,101,tt1193138,tt0362227,5,2604
4,4,58e20f50a9be590001280342,similarity,58,113,116,tt2582846,tt0388795,4,181598
4,4,58e20f50a9be590001280342,similarity,59,140,55,tt0093779,tt0101414,DontKnow,1896
4,4,58e20f50a9be590001280342,similarity,60,295,298,tt1631867,tt1318514,DontKnow,771
4,4,58e20f50a9be590001280342,similarity,61,30,8,tt1077368,tt0387564,DontKnow,670
4,4,58e20f50a9be590001280342,similarity,62,70,42,tt0120623,tt1049413,3,4711
4,4,58e20f50a9be590001280342,similarity,63,61,59,tt1772341,tt2245084,DontKnow,2292
4,4,58e20f50a9be590001280342,similarity,64,212,202,tt0083658,tt0103064,DontKnow,678
4,4,58e20f50a9be590001280342,similarity,65,155,171,tt0190332,tt0266697,DontKnow,1115
4,4,58e20f50a9be590001280342,similarity,66,35,25,tt1179904,tt1591095,5,2459
4,4,58e20f50a9be590001280342,similarity,67,210,322,tt1136608,tt1483013,DontKnow,1902
4,4,58e20f50a9be590001280342,similarity,68,110,243,tt1068680,tt1119646,3,2272
4,4,58e20f50a9be590001280342,similarity,69,246,359,tt2802144,tt0106977,DontKnow,730
4,4,58e20f50a9be590001280342,similarity,70,3,39,tt0816711,tt1139797,DontKnow,437
4,4,58e20f50a9be590001280342,similarity,71,162,178,tt0110912,tt0264464,1,12105
4,4,58e20f50a9be590001280342,similarity,72,68,46,tt0107688,tt0892769,DontKnow,1446
4,4,58e20f50a9be590001280342,similarity,73,330,325,tt5013056,tt2179136,DontKnow,847
4,4,58e20f50a9be590001280342,similarity,74,37,135,tt0259324,tt1211837,DontKnow,806
4,4,58e20f50a9be590001280342,similarity,75,112,100,tt0343660,tt0405422,4,1904
4,4,58e20f50a9be590001280342,similarity,76,211,206,tt1074638,tt0095016,DontKnow,851
4,4,58e20f50a9be590001280342,similarity,77,72,258,tt0096283,tt0367594,DontKnow,87443
4,4,58e20f50a9be590001280342,similarity,78,335,55,tt1587310,tt0101414,DontKnow,22275
4,4,58e20f50a9be590001280342,similarity,79,326,340,tt1979320,tt0433035,DontKnow,2438
4,4,58e20f50a9be590001280342,similarity,80,277,265,tt0091042,tt0097165,DontKnow,1261
4,4,58e20f50a9be590001280342,similarity,81,342,359,tt0944835,tt0106977,DontKnow,551
4,4,58e20f50a9be590001280342,similarity,82,377,383,tt1663202,tt0758758,DontKnow,941
4,4,58e20f50a9be590001280342,similarity,83,99,101,tt0314331,tt0362227,1,2969
4,4,58e20f50a9be590001280342,similarity,84,350,291,tt1037705,tt1877832,DontKnow,7544
4,4,58e20f50a9be590001280342,similarity,85,17,26,tt0298130,tt5052448,3,2252
4,4,58e20f50a9be590001280342,similarity,86,349,91,tt0472043,tt0332452,DontKnow,1692
4,4,58e20f50a9be590001280342,similarity,87,29,8,tt0120804,tt0387564,DontKnow,2012
4,4,58e20f50a9be590001280342,similarity,88,4,315,tt0054215,tt0217869,DontKnow,1422
4,4,58e20f50a9be590001280342,similarity,89,201,219,tt1130884,tt0364569,DontKnow,6669
4,4,58e20f50a9be590001280342,similarity,90,186,170,tt0936501,tt0110413,DontKnow,1091
4,4,58e20f50a9be590001280342,similarity,91,211,171,tt1074638,tt0266697,DontKnow,949
4,4,58e20f50a9be590001280342,similarity,92,213,155,tt0440963,tt0190332,DontKnow,1026
4,4,58e20f50a9be590001280342,similarity,93,74,75,tt0120762,tt0097757,DontKnow,972
4,4,58e20f50a9be590001280342,similarity,94,77,16,tt0983193,tt0162661,DontKnow,1121
4,4,58e20f50a9be590001280342,similarity,95,209,4,tt0947798,tt0054215,DontKnow,822
4,4,58e20f50a9be590001280342,similarity,96,326,384,tt1979320,tt0075148,DontKnow,926
4,4,58e20f50a9be590001280342,similarity,97,290,248,tt0145487,tt1250777,DontKnow,902
4,4,58e20f50a9be590001280342,similarity,98,148,369,tt0120601,tt0119217,3,302821
4,4,58e20f50a9be590001280342,similarity,99,283,129,tt0848228,tt0800369,DontKnow,1491
4,4,58e20f50a9be590001280342,similarity,100,84,279,tt0211915,tt1748122,DontKnow,759
4,4,58e20f50a9be590001280342,similarity,101,44,70,tt0114709,tt0120623,DontKnow,1054
4,4,58e20f50a9be590001280342,similarity,102,182,398,tt0317248,tt0217505,DontKnow,2459
4,4,58e20f50a9be590001280342,similarity,103,353,187,tt0053125,tt1670345,DontKnow,1217
4,4,58e20f50a9be590001280342,similarity,104,316,191,tt1104001,tt1276104,DontKnow,2678
4,4,58e20f50a9be590001280342,similarity,105,54,73,tt0268380,tt1192628,3,2619
4,4,58e20f50a9be590001280342,similarity,106,198,90,tt0343818,tt0945513,DontKnow,1506
4,4,58e20f50a9be590001280342,similarity,107,220,331,tt0206634,tt1371111,DontKnow,1204
4,4,58e20f50a9be590001280342,similarity,108,38,20,tt0384537,tt0360486,DontKnow,1615
4,4,58e20f50a9be590001280342,similarity,109,336,348,tt0117500,tt0293662,DontKnow,1442
4,4,58e20f50a9be590001280342,similarity,110,331,179,tt1371111,tt0066921,DontKnow,15709
4,4,58e20f50a9be590001280342,similarity,111,295,297,tt1631867,tt0116629,DontKnow,3533
4,4,58e20f50a9be590001280342,similarity,112,348,354,tt0293662,tt0118880,DontKnow,1091
4,4,58e20f50a9be590001280342,similarity,113,191,198,tt1276104,tt0343818,DontKnow,1531
4,4,58e20f50a9be590001280342,similarity,114,364,373,tt0108052,tt2084970,DontKnow,1943
4,4,58e20f50a9be590001280342,similarity,115,219,360,tt0364569,tt0137523,DontKnow,1861
4,4,58e20f50a9be590001280342,similarity,116,356,301,tt0120201,tt0119116,DontKnow,101326
4,4,58e20f50a9be590001280342,similarity,117,74,64,tt0120762,tt0103639,4,1743
4,4,58e20f50a9be590001280342,similarity,118,70,46,tt0120623,tt0892769,DontKnow,1668
4,4,58e20f50a9be590001280342,similarity,119,288,307,tt1392190,tt1790864,DontKnow,3324
4,4,58e20f50a9be590001280342,similarity,120,109,108,tt1632708,tt0396269,4,2050
4,4,58e20f50a9be590001280342,similarity,121,191,280,tt1276104,tt1375666,DontKnow,1267
4,4,58e20f50a9be590001280342,similarity,122,281,280,tt0133093,tt1375666,5,1547
4,4,58e20f50a9be590001280342,similarity,123,79,42,tt1436562,tt1049413,4,1520
4,4,58e20f50a9be590001280342,similarity,124,243,108,tt1119646,tt0396269,6,1910
4,4,58e20f50a9be590001280342,similarity,125,60,65,tt1217209,tt1490017,1,2564
4,4,58e20f50a9be590001280342,similarity,126,336,333,tt0117500,tt0328107,DontKnow,1288
4,4,58e20f50a9be590001280342,similarity,127,151,48,tt0113497,tt0382932,3,3228
4,4,58e20f50a9be590001280342,similarity,128,175,169,tt0477348,tt0114814,DontKnow,2120
4,4,58e20f50a9be590001280342,similarity,129,212,197,tt0083658,tt0181689,DontKnow,1687
4,4,58e20f50a9be590001280342,similarity,130,70,74,tt0120623,tt0120762,DontKnow,7145
4,4,58e20f50a9be590001280342,similarity,131,39,14,tt1139797,tt0084787,DontKnow,1718
4,4,58e20f50a9be590001280342,similarity,132,186,219,tt0936501,tt0364569,DontKnow,1176
4,4,58e20f50a9be590001280342,similarity,133,273,180,tt0910936,tt0118715,DontKnow,2884
4,4,58e20f50a9be590001280342,similarity,134,72,41,tt0096283,tt0266543,DontKnow,4524
4,4,58e20f50a9be590001280342,similarity,135,47,79,tt0317705,tt1436562,DontKnow,1157
4,4,58e20f50a9be590001280342,similarity,136,52,41,tt2096673,tt0266543,DontKnow,1274
4,4,58e20f50a9be590001280342,similarity,137,281,118,tt0133093,tt0399201,DontKnow,1430
4,4,58e20f50a9be590001280342,similarity,138,374,81,tt1504320,tt0120338,DontKnow,2239
4,4,58e20f50a9be590001280342,similarity,139,151,145,tt0113497,tt0363771,4,2314
4,4,58e20f50a9be590001280342,similarity,140,1,301,tt0078748,tt0119116,DontKnow,1135
4,4,58e20f50a9be590001280342,similarity,141,79,70,tt1436562,tt0120623,DontKnow,1644
4,4,58e20f50a9be590001280342,similarity,142,283,306,tt0848228,tt0800080,DontKnow,5901
4,4,58e20f50a9be590001280342,similarity,143,205,309,tt0107290,tt0831387,DontKnow,1023
4,4,58e20f50a9be590001280342,similarity,144,68,69,tt0107688,tt0347149,DontKnow,957
4,4,58e20f50a9be590001280342,similarity,145,62,56,tt0351283,tt0441773,DontKnow,990
4,4,58e20f50a9be590001280342,similarity,146,198,285,tt0343818,tt0434409,DontKnow,1221
4,4,58e20f50a9be590001280342,similarity,147,258,46,tt0367594,tt0892769,5,2311
4,4,58e20f50a9be590001280342,similarity,148,57,60,tt0398286,tt1217209,DontKnow,878
4,4,58e20f50a9be590001280342,similarity,149,297,227,tt0116629,tt0407304,DontKnow,5842
4,4,58e20f50a9be590001280342,similarity,150,8,26,tt0387564,tt5052448,DontKnow,1518
4,4,58e20f50a9be590001280342,similarity,151,366,320,tt0112573,tt0172495,DontKnow,3437
4,4,58e20f50a9be590001280342,similarity,152,96,265,tt1659337,tt0097165,DontKnow,1046
4,4,58e20f50a9be590001280342,similarity,153,269,152,tt0087332,tt0119528,DontKnow,1052
4,4,58e20f50a9be590001280342,similarity,154,93,109,tt1022603,tt1632708,DontKnow,1227
4,4,58e20f50a9be590001280342,similarity,155,84,154,tt0211915,tt2194499,DontKnow,1397
4,4,58e20f50a9be590001280342,similarity,156,14,3,tt0084787,tt0816711,DontKnow,1211
4,4,58e20f50a9be590001280342,similarity,157,336,206,tt0117500,tt0095016,DontKnow,1260
4,4,58e20f50a9be590001280342,similarity,158,214,159,tt0114746,tt0259711,DontKnow,1282
4,4,58e20f50a9be590001280342,similarity,159,78,61,tt0837562,tt1772341,DontKnow,2437
4,4,58e20f50a9be590001280342,similarity,160,312,354,tt0119094,tt0118880,DontKnow,1150
4,4,58e20f50a9be590001280342,similarity,161,208,130,tt0246578,tt0457430,DontKnow,1117
4,4,58e20f50a9be590001280342,similarity,162,255,347,tt0356910,tt1245526,DontKnow,1755
4,4,58e20f50a9be590001280342,similarity,163,283,161,tt0848228,tt0468569,DontKnow,1117
4,4,58e20f50a9be590001280342,similarity,164,73,47,tt1192628,tt0317705,DontKnow,998
4,4,58e20f50a9be590001280342,similarity,165,50,145,tt0245429,tt0363771,DontKnow,1107
4,4,58e20f50a9be590001280342,similarity,166,284,201,tt0482571,tt1130884,DontKnow,1100
4,4,58e20f50a9be590001280342,similarity,167,21,39,tt0884328,tt1139797,DontKnow,1198
4,4,58e20f50a9be590001280342,similarity,168,326,378,tt1979320,tt0405159,DontKnow,1520
4,4,58e20f50a9be590001280342,similarity,169,159,220,tt0259711,tt0206634,DontKnow,1118
4,4,58e20f50a9be590001280342,similarity,170,62,45,tt0351283,tt0198781,5,1653
4,4,58e20f50a9be590001280342,similarity,171,79,44,tt1436562,tt0114709,4,1349
4,4,58e20f50a9be590001280342,similarity,172,38,203,tt0384537,tt0167404,DontKnow,1282
4,4,58e20f50a9be590001280342,similarity,173,291,135,tt1877832,tt1211837,DontKnow,1810
4,4,58e20f50a9be590001280342,similarity,174,346,356,tt0379786,tt0120201,DontKnow,1316
4,4,58e20f50a9be590001280342,similarity,175,360,367,tt0137523,tt0073486,DontKnow,2170
4,4,58e20f50a9be590001280342,similarity,176,53,72,tt1323594,tt0096283,DontKnow,1059
4,4,58e20f50a9be590001280342,similarity,177,382,363,tt0078788,tt0120815,DontKnow,1228
4,4,58e20f50a9be590001280342,similarity,178,195,253,tt1232829,tt0425112,DontKnow,1266
4,4,58e20f50a9be590001280342,similarity,179,219,209,tt0364569,tt0947798,DontKnow,1327
4,4,58e20f50a9be590001280342,similarity,180,322,282,tt1483013,tt0816692,DontKnow,942
4,4,58e20f50a9be590001280342,similarity,181,346,301,tt0379786,tt0119116,DontKnow,930
4,4,58e20f50a9be590001280342,similarity,182,153,137,tt0473075,tt0120616,DontKnow,1089
4,4,58e20f50a9be590001280342,similarity,183,63,62,tt0317219,tt0351283,DontKnow,1253
4,4,58e20f50a9be590001280342,similarity,184,267,272,tt0109686,tt1231583,DontKnow,1146
4,4,58e20f50a9be590001280342,similarity,185,202,281,tt0103064,tt0133093,DontKnow,1133
4,4,58e20f50a9be590001280342,similarity,186,384,391,tt0075148,tt1291584,DontKnow,1193
4,4,58e20f50a9be590001280342,similarity,187,135,128,tt1211837,tt0770828,DontKnow,964
4,4,58e20f50a9be590001280342,similarity,188,28,33,tt1396484,tt0185937,DontKnow,1424
4,4,58e20f50a9be590001280342,similarity,189,379,391,tt1285016,tt1291584,DontKnow,1029
4,4,58e20f50a9be590001280342,similarity,190,182,83,tt0317248,tt1010048,DontKnow,1265
4,4,58e20f50a9be590001280342,similarity,191,262,244,tt0780536,tt1675434,DontKnow,1292
4,4,58e20f50a9be590001280342,similarity,192,77,124,tt0983193,tt0325980,3,3147
4,4,58e20f50a9be590001280342,similarity,193,95,103,tt1343092,tt0443543,DontKnow,1347
4,4,58e20f50a9be590001280342,similarity,194,135,252,tt1211837,tt0478970,3,2511
4,4,58e20f50a9be590001280342,similarity,195,128,291,tt0770828,tt1877832,DontKnow,1702
4,4,58e20f50a9be590001280342,similarity,196,72,50,tt0096283,tt0245429,4,1660
4,4,58e20f50a9be590001280342,similarity,197,50,151,tt0245429,tt0113497,1,2181
4,4,58e20f50a9be590001280342,similarity,198,304,92,tt0470752,tt1798709,DontKnow,2113
4,4,58e20f50a9be590001280342,similarity,199,9,31,tt0289043,tt0363547,DontKnow,1845
4,4,58e20f50a9be590001280342,similarity,200,92,319,tt1798709,tt0212720,DontKnow,1246
4,4,58e20f50a9be590001280342,similarity,201,206,358,tt0095016,tt0187078,DontKnow,1121
4,4,58e20f50a9be590001280342,similarity,202,156,19,tt0320691,tt0110148,DontKnow,1464
4,4,58e20f50a9be590001280342,similarity,203,360,199,tt0137523,tt0144084,DontKnow,1340
4,4,58e20f50a9be590001280342,similarity,204,8,28,tt0387564,tt1396484,DontKnow,1268
4,4,58e20f50a9be590001280342,similarity,205,37,129,tt0259324,tt0800369,DontKnow,1033
4,4,58e20f50a9be590001280342,similarity,206,64,151,tt0103639,tt0113497,DontKnow,1316
5,7,591c54c95823600001137bd2,similarity,0,197,281,tt0181689,tt0133093,5,15135
5,7,591c54c95823600001137bd2,similarity,1,171,336,tt0266697,tt0117500,1,7560
5,7,591c54c95823600001137bd2,similarity,2,7,27,tt1457767,tt0450385,DontKnow,8453
5,7,591c54c95823600001137bd2,similarity,3,195,263,tt1232829,tt0942385,6,5662
5,7,591c54c95823600001137bd2,similarity,4,5,22,tt0365748,tt0117571,3,8903
5,7,591c54c95823600001137bd2,similarity,5,175,190,tt0477348,tt0113277,4,6045
5,7,591c54c95823600001137bd2,similarity,6,248,128,tt1250777,tt0770828,2,4802
5,7,591c54c95823600001137bd2,similarity,7,60,42,tt1217209,tt1049413,4,8953
5,7,591c54c95823600001137bd2,similarity,8,317,198,tt0238380,tt0343818,2,5766
5,7,591c54c95823600001137bd2,similarity,9,136,37,tt0451279,tt0259324,1,6094
5,7,591c54c95823600001137bd2,similarity,10,380,391,tt2582802,tt1291584,DontKnow,3104
5,7,591c54c95823600001137bd2,similarity,11,235,137,tt0093773,tt0120616,1,4566
5,7,591c54c95823600001137bd2,similarity,12,25,0,tt1591095,tt0081505,4,4793
5,7,591c54c95823600001137bd2,similarity,13,38,28,tt0384537,tt1396484,3,6347
5,7,591c54c95823600001137bd2,similarity,14,173,169,tt0105236,tt0114814,5,5307
5,7,591c54c95823600001137bd2,similarity,15,73,44,tt1192628,tt0114709,2,4163
5,7,591c54c95823600001137bd2,similarity,16,247,364,tt0118799,tt0108052,DontKnow,6299
5,7,591c54c95823600001137bd2,similarity,17,359,358,tt0106977,tt0187078,5,6290
5,7,591c54c95823600001137bd2,similarity,18,18,283,tt0167190,tt0848228,4,4017
5,7,591c54c95823600001137bd2,similarity,19,378,391,tt0405159,tt1291584,5,4423
5,7,591c54c95823600001137bd2,similarity,20,8,3,tt0387564,tt0816711,1,4145
5,7,591c54c95823600001137bd2,similarity,21,343,185,tt0790724,tt0988045,3,5458
5,7,591c54c95823600001137bd2,similarity,22,369,391,tt0119217,tt1291584,1,5747
5,7,591c54c95823600001137bd2,similarity,23,137,77,tt0120616,tt0983193,3,7882
5,7,591c54c95823600001137bd2,similarity,24,212,198,tt0083658,tt0343818,3,8274
5,7,591c54c95823600001137bd2,similarity,25,139,352,tt1014759,tt1735898,4,6863
5,7,591c54c95823600001137bd2,similarity,26,362,363,tt0361748,tt0120815,DontKnow,2791
5,7,591c54c95823600001137bd2,similarity,27,133,37,tt1386697,tt0259324,1,3811
5,7,591c54c95823600001137bd2,similarity,28,221,191,tt0289879,tt1276104,DontKnow,2759
5,7,591c54c95823600001137bd2,similarity,29,296,293,tt0062622,tt0796366,4,8430
5,7,591c54c95823600001137bd2,similarity,30,191,303,tt1276104,tt1535108,DontKnow,2103
5,7,591c54c95823600001137bd2,similarity,31,53,41,tt1323594,tt0266543,5,4595
5,7,591c54c95823600001137bd2,similarity,32,242,129,tt1431045,tt0800369,5,4054
5,7,591c54c95823600001137bd2,similarity,33,90,342,tt0945513,tt0944835,DontKnow,2166
5,7,591c54c95823600001137bd2,similarity,34,212,356,tt0083658,tt0120201,2,5570
5,7,591c54c95823600001137bd2,similarity,35,159,230,tt0259711,tt0047396,DontKnow,2591
5,7,591c54c95823600001137bd2,similarity,36,385,182,tt0469494,tt0317248,DontKnow,2630
5,7,591c54c95823600001137bd2,similarity,37,232,169,tt0139654,tt0114814,2,4350
5,7,591c54c95823600001137bd2,similarity,38,51,49,tt2294629,tt0126029,5,10343
5,7,591c54c95823600001137bd2,similarity,39,283,292,tt0848228,tt0418279,6,4586
5,7,591c54c95823600001137bd2,similarity,40,291,158,tt1877832,tt0486576,6,3179
5,7,591c54c95823600001137bd2,similarity,41,175,232,tt0477348,tt0139654,2,3973
5,7,591c54c95823600001137bd2,similarity,42,285,191,tt0434409,tt1276104,DontKnow,2937
5,7,591c54c95823600001137bd2,similarity,43,8,14,tt0387564,tt0084787,5,6842
5,7,591c54c95823600001137bd2,similarity,44,8,9,tt0387564,tt0289043,3,4222
5,7,591c54c95823600001137bd2,similarity,45,68,13,tt0107688,tt0408236,6,4087
5,7,591c54c95823600001137bd2,similarity,46,55,139,tt0101414,tt1014759,5,2937
5,7,591c54c95823600001137bd2,similarity,47,303,298,tt1535108,tt1318514,1,3448
5,7,591c54c95823600001137bd2,similarity,48,290,287,tt0145487,tt0371746,6,6004
5,7,591c54c95823600001137bd2,similarity,49,142,46,tt0032138,tt0892769,2,3290
5,7,591c54c95823600001137bd2,similarity,50,81,80,tt0120338,tt0109830,2,3465
5,7,591c54c95823600001137bd2,similarity,51,74,67,tt0120762,tt0119698,DontKnow,4651
5,7,591c54c95823600001137bd2,similarity,52,158,292,tt0486576,tt0418279,5,7810
5,7,591c54c95823600001137bd2,similarity,53,62,61,tt0351283,tt1772341,2,3046
5,7,591c54c95823600001137bd2,similarity,54,252,242,tt0478970,tt1431045,6,3556
5,7,591c54c95823600001137bd2,similarity,55,248,291,tt1250777,tt1877832,3,3429
5,7,591c54c95823600001137bd2,similarity,56,346,121,tt0379786,tt0076759,2,4108
5,7,591c54c95823600001137bd2,similarity,57,207,303,tt1454468,tt1535108,5,5181
5,7,591c54c95823600001137bd2,similarity,58,227,356,tt0407304,tt0120201,4,5012
5,7,591c54c95823600001137bd2,similarity,59,280,198,tt1375666,tt0343818,DontKnow,3173
5,7,591c54c95823600001137bd2,similarity,60,289,282,tt3659388,tt0816692,6,5621
5,7,591c54c95823600001137bd2,similarity,61,302,291,tt1840309,tt1877832,4,4072
5,7,591c54c95823600001137bd2,similarity,62,225,170,tt2911666,tt0110413,DontKnow,2882
5,7,591c54c95823600001137bd2,similarity,63,126,349,tt0416449,tt0472043,DontKnow,2571
5,7,591c54c95823600001137bd2,similarity,64,269,86,tt0087332,tt0107048,3,4476
5,7,591c54c95823600001137bd2,similarity,65,368,379,tt0268978,tt1285016,DontKnow,3192
5,7,591c54c95823600001137bd2,similarity,66,86,131,tt0107048,tt1637725,1,3558
5,7,591c54c95823600001137bd2,similarity,67,256,264,tt0057012,tt0443453,DontKnow,9217
5,7,591c54c95823600001137bd2,similarity,68,8,21,tt0387564,tt0884328,5,4445
5,7,591c54c95823600001137bd2,similarity,69,46,43,tt0892769,tt0110357,4,5483
5,7,591c54c95823600001137bd2,similarity,70,260,102,tt3783958,tt1605783,DontKnow,2246
5,7,591c54c95823600001137bd2,similarity,71,171,333,tt0266697,tt0328107,3,3370
5,7,591c54c95823600001137bd2,similarity,72,261,108,tt0163651,tt0396269,6,3542
5,7,591c54c95823600001137bd2,similarity,73,230,353,tt0047396,tt0053125,DontKnow,3285
5,7,591c54c95823600001137bd2,similarity,74,292,318,tt0418279,tt0100802,3,4909
5,7,591c54c95823600001137bd2,similarity,75,60,41,tt1217209,tt0266543,5,3462
5,7,591c54c95823600001137bd2,similarity,76,214,317,tt0114746,tt0238380,DontKnow,3369
5,7,591c54c95823600001137bd2,similarity,77,382,337,tt0078788,tt0213149,DontKnow,2802
5,7,591c54c95823600001137bd2,similarity,78,62,65,tt0351283,tt1490017,2,3872
5,7,591c54c95823600001137bd2,similarity,79,148,187,tt0120601,tt1670345,2,7371
5,7,591c54c95823600001137bd2,similarity,80,59,41,tt2245084,tt0266543,5,2224
5,7,591c54c95823600001137bd2,similarity,81,349,320,tt0472043,tt0172495,2,4210
5,7,591c54c95823600001137bd2,similarity,82,157,69,tt0486655,tt0347149,1,4725
5,7,591c54c95823600001137bd2,similarity,83,388,386,tt0454921,tt0095953,5,5366
5,7,591c54c95823600001137bd2,similarity,84,138,276,tt1245492,tt2788710,3,6085
5,7,591c54c95823600001137bd2,similarity,85,135,290,tt1211837,tt0145487,5,5014
5,7,591c54c95823600001137bd2,similarity,86,259,55,tt1723121,tt0101414,1,3453
5,7,591c54c95823600001137bd2,similarity,87,241,380,tt0120382,tt2582802,1,2754
5,7,591c54c95823600001137bd2,similarity,88,327,363,tt2713180,tt0120815,4,3645
5,7,591c54c95823600001137bd2,similarity,89,45,50,tt0198781,tt0245429,DontKnow,2911
5,7,591c54c95823600001137bd2,similarity,90,300,2,tt1663662,tt0480249,5,3510
5,7,591c54c95823600001137bd2,similarity,91,308,301,tt0120591,tt0119116,DontKnow,2757
5,7,591c54c95823600001137bd2,similarity,92,381,395,tt2024544,tt1454029,DontKnow,3084
5,7,591c54c95823600001137bd2,similarity,93,289,308,tt3659388,tt0120591,4,5475
5,7,591c54c95823600001137bd2,similarity,94,318,356,tt0100802,tt0120201,2,4960
5,7,591c54c95823600001137bd2,similarity,95,109,100,tt1632708,tt0405422,5,2968
5,7,591c54c95823600001137bd2,similarity,96,169,189,tt0114814,tt0780504,DontKnow,2921
5,7,591c54c95823600001137bd2,similarity,97,21,11,tt0884328,tt1259521,4,4622
5,7,591c54c95823600001137bd2,similarity,98,334,206,tt0111257,tt0095016,4,3622
5,7,591c54c95823600001137bd2,similarity,99,86,34,tt0107048,tt1588173,DontKnow,2292
5,7,591c54c95823600001137bd2,similarity,100,22,8,tt0117571,tt0387564,5,2451
5,7,591c54c95823600001137bd2,similarity,101,292,289,tt0418279,tt3659388,4,4533
5,7,591c54c95823600001137bd2,similarity,102,296,121,tt0062622,tt0076759,5,7602
5,7,591c54c95823600001137bd2,similarity,103,34,261,tt1588173,tt0163651,DontKnow,4305
5,7,591c54c95823600001137bd2,similarity,104,315,209,tt0217869,tt0947798,DontKnow,2994
5,7,591c54c95823600001137bd2,similarity,105,188,177,tt0116282,tt0208092,DontKnow,3525
5,7,591c54c95823600001137bd2,similarity,106,395,374,tt1454029,tt1504320,DontKnow,3489
5,7,591c54c95823600001137bd2,similarity,107,196,278,tt0240772,tt0887883,DontKnow,3805
5,7,591c54c95823600001137bd2,similarity,108,159,201,tt0259711,tt1130884,3,5488
5,7,591c54c95823600001137bd2,similarity,109,298,122,tt1318514,tt0499549,4,4946
5,7,591c54c95823600001137bd2,similarity,110,297,356,tt0116629,tt0120201,5,5318
5,7,591c54c95823600001137bd2,similarity,111,279,86,tt1748122,tt0107048,DontKnow,2723
5,7,591c54c95823600001137bd2,similarity,112,294,14,tt1446714,tt0084787,3,4503
5,7,591c54c95823600001137bd2,similarity,113,304,299,tt0470752,tt2543164,DontKnow,1913
5,7,591c54c95823600001137bd2,similarity,114,239,187,tt0317740,tt1670345,4,4414
5,7,591c54c95823600001137bd2,similarity,115,34,6,tt1588173,tt1156398,DontKnow,2217
5,7,591c54c95823600001137bd2,similarity,116,202,121,tt0103064,tt0076759,2,5072
5,7,591c54c95823600001137bd2,similarity,117,129,252,tt0800369,tt0478970,6,6339
5,7,591c54c95823600001137bd2,similarity,118,8,38,tt0387564,tt0384537,6,2682
5,7,591c54c95823600001137bd2,similarity,119,84,369,tt0211915,tt0119217,DontKnow,1812
5,7,591c54c95823600001137bd2,similarity,120,49,57,tt0126029,tt0398286,6,9765
5,7,591c54c95823600001137bd2,similarity,121,357,91,tt0320661,tt0332452,7,3411
5,7,591c54c95823600001137bd2,similarity,122,66,264,tt0462538,tt0443453,4,2535
5,7,591c54c95823600001137bd2,similarity,123,91,320,tt0332452,tt0172495,7,3688
5,7,591c54c95823600001137bd2,similarity,124,106,263,tt0446029,tt0942385,DontKnow,4079
5,7,591c54c95823600001137bd2,similarity,125,219,191,tt0364569,tt1276104,DontKnow,2458
5,7,591c54c95823600001137bd2,similarity,126,281,212,tt0133093,tt0083658,5,4860
5,7,591c54c95823600001137bd2,similarity,127,99,85,tt0314331,tt1045658,DontKnow,3933
5,7,591c54c95823600001137bd2,similarity,128,235,8,tt0093773,tt0387564,4,3495
5,7,591c54c95823600001137bd2,similarity,129,25,20,tt1591095,tt0360486,2,3828
5,7,591c54c95823600001137bd2,similarity,130,173,166,tt0105236,tt0407887,4,2734
5,7,591c54c95823600001137bd2,similarity,131,49,64,tt0126029,tt0103639,5,2639
5,7,591c54c95823600001137bd2,similarity,132,211,354,tt1074638,tt0118880,5,3829
5,7,591c54c95823600001137bd2,similarity,133,203,237,tt0167404,tt0361862,4,4353
5,7,591c54c95823600001137bd2,similarity,134,115,230,tt0052357,tt0047396,DontKnow,2524
5,7,591c54c95823600001137bd2,similarity,135,359,343,tt0106977,tt0790724,4,6041
5,7,591c54c95823600001137bd2,similarity,136,122,118,tt0499549,tt0399201,3,3290
5,7,591c54c95823600001137bd2,similarity,137,64,43,tt0103639,tt0110357,6,2820
5,7,591c54c95823600001137bd2,similarity,138,237,221,tt0361862,tt0289879,DontKnow,3833
5,7,591c54c95823600001137bd2,similarity,139,80,244,tt0109830,tt1675434,3,3921
5,7,591c54c95823600001137bd2,similarity,140,290,18,tt0145487,tt0167190,3,3239
5,7,591c54c95823600001137bd2,similarity,141,8,0,tt0387564,tt0081505,5,5298
5,7,591c54c95823600001137bd2,similarity,142,176,237,tt2267998,tt0361862,DontKnow,2383
5,7,591c54c95823600001137bd2,similarity,143,39,235,tt1139797,tt0093773,DontKnow,3612
5,7,591c54c95823600001137bd2,similarity,144,17,8,tt0298130,tt0387564,6,5531
5,7,591c54c95823600001137bd2,similarity,145,63,48,tt0317219,tt0382932,6,3617
5,7,591c54c95823600001137bd2,similarity,146,286,289,tt2015381,tt3659388,2,3101
5,7,591c54c95823600001137bd2,similarity,147,64,46,tt0103639,tt0892769,5,2992
5,7,591c54c95823600001137bd2,similarity,148,143,224,tt0493464,tt2872732,DontKnow,3833
5,7,591c54c95823600001137bd2,similarity,149,157,127,tt0486655,tt1201607,5,4302
5,7,591c54c95823600001137bd2,similarity,150,93,119,tt1022603,tt0386588,3,4463
5,7,591c54c95823600001137bd2,similarity,151,309,297,tt0831387,tt0116629,5,5051
5,7,591c54c95823600001137bd2,similarity,152,148,241,tt0120601,tt0120382,3,7456
5,7,591c54c95823600001137bd2,similarity,153,23,8,tt4972582,tt0387564,DontKnow,2478
5,7,591c54c95823600001137bd2,similarity,154,90,225,tt0945513,tt2911666,4,5048
5,7,591c54c95823600001137bd2,similarity,155,178,193,tt0264464,tt0120735,5,4119
5,7,591c54c95823600001137bd2,similarity,156,102,149,tt1605783,tt0389860,DontKnow,2061
5,7,591c54c95823600001137bd2,similarity,157,336,222,tt0117500,tt1229238,DontKnow,2949
5,7,591c54c95823600001137bd2,similarity,158,317,179,tt0238380,tt0066921,DontKnow,2523
5,7,591c54c95823600001137bd2,similarity,159,263,324,tt0942385,tt0448157,3,4884
5,7,591c54c95823600001137bd2,similarity,160,381,80,tt2024544,tt0109830,5,3599
5,7,591c54c95823600001137bd2,similarity,161,303,118,tt1535108,tt0399201,5,4559
5,7,591c54c95823600001137bd2,similarity,162,140,43,tt0093779,tt0110357,3,3768
5,7,591c54c95823600001137bd2,similarity,163,303,202,tt1535108,tt0103064,2,3998
5,7,591c54c95823600001137bd2,similarity,164,148,141,tt0120601,tt0315327,DontKnow,2143
5,7,591c54c95823600001137bd2,similarity,165,184,160,tt0050083,tt0111161,DontKnow,2504
5,7,591c54c95823600001137bd2,similarity,166,254,244,tt0449059,tt1675434,DontKnow,2508
5,7,591c54c95823600001137bd2,similarity,167,252,133,tt0478970,tt1386697,6,7461
5,7,591c54c95823600001137bd2,similarity,168,4,165,tt0054215,tt0102926,DontKnow,2758
5,7,591c54c95823600001137bd2,similarity,169,3,32,tt0816711,tt0134847,3,5538
5,7,591c54c95823600001137bd2,similarity,170,195,273,tt1232829,tt0910936,6,3371
5,7,591c54c95823600001137bd2,similarity,171,89,113,tt0034583,tt2582846,DontKnow,1569
5,7,591c54c95823600001137bd2,similarity,172,203,209,tt0167404,tt0947798,3,6094
5,7,591c54c95823600001137bd2,similarity,173,302,158,tt1840309,tt0486576,4,5708
5,7,591c54c95823600001137bd2,similarity,174,335,75,tt1587310,tt0097757,5,3213
5,7,591c54c95823600001137bd2,similarity,175,319,340,tt0212720,tt0433035,6,4087
5,7,591c54c95823600001137bd2,similarity,176,180,193,tt0118715,tt0120735,2,4629
5,7,591c54c95823600001137bd2,similarity,177,181,390,tt0086250,tt0112641,3,3735
5,7,591c54c95823600001137bd2,similarity,178,341,143,tt3397884,tt0493464,DontKnow,1688
5,7,591c54c95823600001137bd2,similarity,179,141,146,tt0315327,tt0110475,5,2835
5,7,591c54c95823600001137bd2,similarity,180,311,305,tt1190080,tt0319262,7,2994
5,7,591c54c95823600001137bd2,similarity,181,69,72,tt0347149,tt0096283,DontKnow,2756
5,7,591c54c95823600001137bd2,similarity,182,212,316,tt0083658,tt1104001,2,3950
5,7,591c54c95823600001137bd2,similarity,183,342,343,tt0944835,tt0790724,DontKnow,2320
5,7,591c54c95823600001137bd2,similarity,184,236,189,tt0369339,tt0780504,DontKnow,4244
5,7,591c54c95823600001137bd2,similarity,185,260,94,tt3783958,tt1570728,DontKnow,3522
5,7,591c54c95823600001137bd2,similarity,186,251,271,tt0467406,tt0088847,3,3288
5,7,591c54c95823600001137bd2,similarity,187,332,222,tt1320253,tt1229238,2,3784
5,7,591c54c95823600001137bd2,similarity,188,41,54,tt0266543,tt0268380,6,6316
5,7,591c54c95823600001137bd2,similarity,189,306,37,tt0800080,tt0259324,1,4500
5,7,591c54c95823600001137bd2,similarity,190,30,19,tt1077368,tt0110148,DontKnow,3959
5,7,591c54c95823600001137bd2,similarity,191,219,394,tt0364569,tt1568346,DontKnow,2789
5,7,591c54c95823600001137bd2,similarity,192,14,11,tt0084787,tt1259521,6,2941
5,7,591c54c95823600001137bd2,similarity,193,226,375,tt0887912,tt0093058,DontKnow,2600
5,7,591c54c95823600001137bd2,similarity,194,50,97,tt0245429,tt0099487,DontKnow,1695
5,7,591c54c95823600001137bd2,similarity,195,4,203,tt0054215,tt0167404,DontKnow,2223
5,7,591c54c95823600001137bd2,similarity,196,32,31,tt0134847,tt0363547,5,7814
5,7,591c54c95823600001137bd2,similarity,197,283,248,tt0848228,tt1250777,3,2974
5,7,591c54c95823600001137bd2,similarity,198,131,149,tt1637725,tt0389860,5,4627
5,7,591c54c95823600001137bd2,similarity,199,165,219,tt0102926,tt0364569,DontKnow,2026
5,7,591c54c95823600001137bd2,similarity,200,54,151,tt0268380,tt0113497,2,3569
5,7,591c54c95823600001137bd2,similarity,201,194,398,tt0119488,tt0217505,DontKnow,2311
5,7,591c54c95823600001137bd2,similarity,202,318,198,tt0100802,tt0343818,3,3235
5,7,591c54c95823600001137bd2,similarity,203,227,292,tt0407304,tt0418279,5,4696
5,7,591c54c95823600001137bd2,similarity,204,358,334,tt0187078,tt0111257,5,4087
5,7,591c54c95823600001137bd2,similarity,205,4,219,tt0054215,tt0364569,DontKnow,1548
5,7,591c54c95823600001137bd2,similarity,206,272,243,tt1231583,tt1119646,6,6723
6,8,59c10c3f3ed6380001598c4a,similarity,0,178,373,tt0264464,tt2084970,5,17418
6,8,59c10c3f3ed6380001598c4a,similarity,1,252,128,tt0478970,tt0770828,5,8013
6,8,59c10c3f3ed6380001598c4a,similarity,2,175,236,tt0477348,tt0369339,DontKnow,11283
6,8,59c10c3f3ed6380001598c4a,similarity,3,33,12,tt0185937,tt0070047,6,5485
6,8,59c10c3f3ed6380001598c4a,similarity,4,68,72,tt0107688,tt0096283,2,7183
6,8,59c10c3f3ed6380001598c4a,similarity,5,156,30,tt0320691,tt1077368,5,6778
6,8,59c10c3f3ed6380001598c4a,similarity,6,25,12,tt1591095,tt0070047,DontKnow,4109
6,8,59c10c3f3ed6380001598c4a,similarity,7,269,146,tt0087332,tt0110475,3,6262
6,8,59c10c3f3ed6380001598c4a,similarity,8,176,187,tt2267998,tt1670345,5,6665
6,8,59c10c3f3ed6380001598c4a,similarity,9,103,130,tt0443543,tt0457430,DontKnow,3628
6,8,59c10c3f3ed6380001598c4a,similarity,10,348,206,tt0293662,tt0095016,5,8791
6,8,59c10c3f3ed6380001598c4a,similarity,11,364,325,tt0108052,tt2179136,2,9769
6,8,59c10c3f3ed6380001598c4a,similarity,12,178,353,tt0264464,tt0053125,6,9039
6,8,59c10c3f3ed6380001598c4a,similarity,13,218,223,tt0450259,tt0375679,DontKnow,2696
6,8,59c10c3f3ed6380001598c4a,similarity,14,298,158,tt1318514,tt0486576,1,6561
6,8,59c10c3f3ed6380001598c4a,similarity,15,372,364,tt0253474,tt0108052,4,7701
6,8,59c10c3f3ed6380001598c4a,similarity,16,296,214,tt0062622,tt0114746,DontKnow,3017
6,8,59c10c3f3ed6380001598c4a,similarity,17,371,183,tt1205489,tt0075314,DontKnow,7447
6,8,59c10c3f3ed6380001598c4a,similarity,18,290,129,tt0145487,tt0800369,1,5646
6,8,59c10c3f3ed6380001598c4a,similarity,19,206,171,tt0095016,tt0266697,DontKnow,9314
6,8,59c10c3f3ed6380001598c4a,similarity,20,292,202,tt0418279,tt0103064,2,5532
6,8,59c10c3f3ed6380001598c4a,similarity,21,196,239,tt0240772,tt0317740,5,4770
6,8,59c10c3f3ed6380001598c4a,similarity,22,264,276,tt0443453,tt2788710,2,7142
6,8,59c10c3f3ed6380001598c4a,similarity,23,335,139,tt1587310,tt1014759,5,3376
6,8,59c10c3f3ed6380001598c4a,similarity,24,233,359,tt1905041,tt0106977,DontKnow,3965
6,8,59c10c3f3ed6380001598c4a,similarity,25,319,391,tt0212720,tt1291584,DontKnow,2649
6,8,59c10c3f3ed6380001598c4a,similarity,26,138,263,tt1245492,tt0942385,DontKnow,2309
6,8,59c10c3f3ed6380001598c4a,similarity,27,221,217,tt0289879,tt1219289,6,8529
6,8,59c10c3f3ed6380001598c4a,similarity,28,235,31,tt0093773,tt0363547,DontKnow,2763
6,8,59c10c3f3ed6380001598c4a,similarity,29,237,201,tt0361862,tt1130884,DontKnow,2714
6,8,59c10c3f3ed6380001598c4a,similarity,30,60,61,tt1217209,tt1772341,4,8232
6,8,59c10c3f3ed6380001598c4a,similarity,31,153,321,tt0473075,tt0082971,DontKnow,2872
6,8,59c10c3f3ed6380001598c4a,similarity,32,112,260,tt0343660,tt3783958,5,12700
6,8,59c10c3f3ed6380001598c4a,similarity,33,70,242,tt0120623,tt1431045,DontKnow,3688
6,8,59c10c3f3ed6380001598c4a,similarity,34,133,283,tt1386697,tt0848228,DontKnow,1760
6,8,59c10c3f3ed6380001598c4a,similarity,35,318,301,tt0100802,tt0119116,DontKnow,4271
6,8,59c10c3f3ed6380001598c4a,similarity,36,34,5,tt1588173,tt0365748,4,9305
6,8,59c10c3f3ed6380001598c4a,similarity,37,299,296,tt2543164,tt0062622,DontKnow,2525
6,8,59c10c3f3ed6380001598c4a,similarity,38,232,236,tt0139654,tt0369339,DontKnow,3356
6,8,59c10c3f3ed6380001598c4a,similarity,39,242,136,tt1431045,tt0451279,DontKnow,2948
6,8,59c10c3f3ed6380001598c4a,similarity,40,249,256,tt2562232,tt0057012,4,8274
6,8,59c10c3f3ed6380001598c4a,similarity,41,356,298,tt0120201,tt1318514,4,6570
6,8,59c10c3f3ed6380001598c4a,similarity,42,54,79,tt0268380,tt1436562,5,5227
6,8,59c10c3f3ed6380001598c4a,similarity,43,366,357,tt0112573,tt0320661,5,3697
6,8,59c10c3f3ed6380001598c4a,similarity,44,202,318,tt0103064,tt0100802,6,5011
6,8,59c10c3f3ed6380001598c4a,similarity,45,176,209,tt2267998,tt0947798,1,7744
6,8,59c10c3f3ed6380001598c4a,similarity,46,335,352,tt1587310,tt1735898,6,5910
6,8,59c10c3f3ed6380001598c4a,similarity,47,232,166,tt0139654,tt0407887,DontKnow,2601
6,8,59c10c3f3ed6380001598c4a,similarity,48,200,237,tt0209144,tt0361862,DontKnow,5449
6,8,59c10c3f3ed6380001598c4a,similarity,49,37,291,tt0259324,tt1877832,DontKnow,1740
6,8,59c10c3f3ed6380001598c4a,similarity,50,7,33,tt1457767,tt0185937,6,3708
6,8,59c10c3f3ed6380001598c4a,similarity,51,198,316,tt0343818,tt1104001,DontKnow,3610
6,8,59c10c3f3ed6380001598c4a,similarity,52,7,301,tt1457767,tt0119116,DontKnow,1932
6,8,59c10c3f3ed6380001598c4a,similarity,53,158,290,tt0486576,tt0145487,5,4210
6,8,59c10c3f3ed6380001598c4a,similarity,54,45,44,tt0198781,tt0114709,7,4274
6,8,59c10c3f3ed6380001598c4a,similarity,55,155,136,tt0190332,tt0451279,DontKnow,2925
6,8,59c10c3f3ed6380001598c4a,similarity,56,59,65,tt2245084,tt1490017,DontKnow,2632
6,8,59c10c3f3ed6380001598c4a,similarity,57,130,123,tt0457430,tt0120689,DontKnow,3241
6,8,59c10c3f3ed6380001598c4a,similarity,58,18,242,tt0167190,tt1431045,4,6590
6,8,59c10c3f3ed6380001598c4a,similarity,59,249,369,tt2562232,tt0119217,1,4338
6,8,59c10c3f3ed6380001598c4a,similarity,60,329,137,tt0360717,tt0120616,4,5837
6,8,59c10c3f3ed6380001598c4a,similarity,61,281,317,tt0133093,tt0238380,5,3904
6,8,59c10c3f3ed6380001598c4a,similarity,62,333,225,tt0328107,tt2911666,DontKnow,2634
6,8,59c10c3f3ed6380001598c4a,similarity,63,37,128,tt0259324,tt0770828,DontKnow,2492
6,8,59c10c3f3ed6380001598c4a,similarity,64,355,337,tt0092099,tt0213149,5,10687
6,8,59c10c3f3ed6380001598c4a,similarity,65,210,296,tt1136608,tt0062622,DontKnow,2486
6,8,59c10c3f3ed6380001598c4a,similarity,66,63,65,tt0317219,tt1490017,5,4014
6,8,59c10c3f3ed6380001598c4a,similarity,67,85,114,tt1045658,tt1193138,5,4327
6,8,59c10c3f3ed6380001598c4a,similarity,68,15,16,tt0230600,tt0162661,4,5972
6,8,59c10c3f3ed6380001598c4a,similarity,69,227,295,tt0407304,tt1631867,5,5746
6,8,59c10c3f3ed6380001598c4a,similarity,70,79,60,tt1436562,tt1217209,5,3674
6,8,59c10c3f3ed6380001598c4a,similarity,71,105,260,tt0478311,tt3783958,4,4418
6,8,59c10c3f3ed6380001598c4a,similarity,72,159,234,tt0259711,tt1637688,DontKnow,6221
6,8,59c10c3f3ed6380001598c4a,similarity,73,378,340,tt0405159,tt0433035,DontKnow,1965
6,8,59c10c3f3ed6380001598c4a,similarity,74,159,315,tt0259711,tt0217869,DontKnow,6146
6,8,59c10c3f3ed6380001598c4a,similarity,75,242,45,tt1431045,tt0198781,1,3564
6,8,59c10c3f3ed6380001598c4a,similarity,76,80,374,tt0109830,tt1504320,2,5892
6,8,59c10c3f3ed6380001598c4a,similarity,77,252,287,tt0478970,tt0371746,5,5248
6,8,59c10c3f3ed6380001598c4a,similarity,78,127,64,tt1201607,tt0103639,1,4546
6,8,59c10c3f3ed6380001598c4a,similarity,79,300,1,tt1663662,tt0078748,DontKnow,3010
6,8,59c10c3f3ed6380001598c4a,similarity,80,14,9,tt0084787,tt0289043,DontKnow,3784
6,8,59c10c3f3ed6380001598c4a,similarity,81,65,56,tt1490017,tt0441773,2,5839
6,8,59c10c3f3ed6380001598c4a,similarity,82,30,24,tt1077368,tt0116367,4,5428
6,8,59c10c3f3ed6380001598c4a,similarity,83,303,317,tt1535108,tt0238380,DontKnow,4623
6,8,59c10c3f3ed6380001598c4a,similarity,84,7,12,tt1457767,tt0070047,6,3076
6,8,59c10c3f3ed6380001598c4a,similarity,85,78,65,tt0837562,tt1490017,1,3650
6,8,59c10c3f3ed6380001598c4a,similarity,86,310,301,tt0083866,tt0119116,5,4142
6,8,59c10c3f3ed6380001598c4a,similarity,87,62,70,tt0351283,tt0120623,6,3535
6,8,59c10c3f3ed6380001598c4a,similarity,88,61,45,tt1772341,tt0198781,5,3091
6,8,59c10c3f3ed6380001598c4a,similarity,89,70,54,tt0120623,tt0268380,5,4655
6,8,59c10c3f3ed6380001598c4a,similarity,90,242,306,tt1431045,tt0800080,DontKnow,2862
6,8,59c10c3f3ed6380001598c4a,similarity,91,41,79,tt0266543,tt1436562,5,8053
6,8,59c10c3f3ed6380001598c4a,similarity,92,66,76,tt0462538,tt1001526,DontKnow,4240
6,8,59c10c3f3ed6380001598c4a,similarity,93,252,248,tt0478970,tt1250777,DontKnow,2500
6,8,59c10c3f3ed6380001598c4a,similarity,94,130,139,tt0457430,tt1014759,6,2973
6,8,59c10c3f3ed6380001598c4a,similarity,95,393,396,tt0327056,tt0443706,DontKnow,2431
6,8,59c10c3f3ed6380001598c4a,similarity,96,243,117,tt1119646,tt0212338,1,5505
6,8,59c10c3f3ed6380001598c4a,similarity,97,27,38,tt0450385,tt0384537,DontKnow,2914
6,8,59c10c3f3ed6380001598c4a,similarity,98,25,28,tt1591095,tt1396484,6,4046
6,8,59c10c3f3ed6380001598c4a,similarity,99,227,281,tt0407304,tt0133093,5,4779
6,8,59c10c3f3ed6380001598c4a,similarity,100,209,159,tt0947798,tt0259711,1,4673
6,8,59c10c3f3ed6380001598c4a,similarity,101,322,289,tt1483013,tt3659388,3,4717
6,8,59c10c3f3ed6380001598c4a,similarity,102,196,162,tt0240772,tt0110912,5,6701
6,8,59c10c3f3ed6380001598c4a,similarity,103,241,369,tt0120382,tt0119217,5,5215
6,8,59c10c3f3ed6380001598c4a,similarity,104,274,107,tt0377092,tt1282140,DontKnow,3280
6,8,59c10c3f3ed6380001598c4a,similarity,105,359,186,tt0106977,tt0936501,5,4736
6,8,59c10c3f3ed6380001598c4a,similarity,106,191,234,tt1276104,tt1637688,DontKnow,2234
6,8,59c10c3f3ed6380001598c4a,similarity,107,138,268,tt1245492,tt0079470,DontKnow,2098
6,8,59c10c3f3ed6380001598c4a,similarity,108,159,237,tt0259711,tt0361862,DontKnow,2737
6,8,59c10c3f3ed6380001598c4a,similarity,109,42,47,tt1049413,tt0317705,3,4112
6,8,59c10c3f3ed6380001598c4a,similarity,110,306,248,tt0800080,tt1250777,4,7180
6,8,59c10c3f3ed6380001598c4a,similarity,111,296,331,tt0062622,tt1371111,DontKnow,2216
6,8,59c10c3f3ed6380001598c4a,similarity,112,33,17,tt0185937,tt0298130,7,4823
6,8,59c10c3f3ed6380001598c4a,similarity,113,350,287,tt1037705,tt0371746,DontKnow,2914
6,8,59c10c3f3ed6380001598c4a,similarity,114,55,352,tt0101414,tt1735898,2,4529
6,8,59c10c3f3ed6380001598c4a,similarity,115,384,378,tt0075148,tt0405159,DontKnow,2445
6,8,59c10c3f3ed6380001598c4a,similarity,116,117,110,tt0212338,tt1068680,2,3908
6,8,59c10c3f3ed6380001598c4a,similarity,117,46,151,tt0892769,tt0113497,3,5662
6,8,59c10c3f3ed6380001598c4a,similarity,118,17,7,tt0298130,tt1457767,6,3292
6,8,59c10c3f3ed6380001598c4a,similarity,119,73,52,tt1192628,tt2096673,DontKnow,2992
6,8,59c10c3f3ed6380001598c4a,similarity,120,184,364,tt0050083,tt0108052,DontKnow,5436
6,8,59c10c3f3ed6380001598c4a,similarity,121,276,66,tt2788710,tt0462538,DontKnow,7586
6,8,59c10c3f3ed6380001598c4a,similarity,122,55,64,tt0101414,tt0103639,6,5982
6,8,59c10c3f3ed6380001598c4a,similarity,123,102,279,tt1605783,tt1748122,DontKnow,3212
6,8,59c10c3f3ed6380001598c4a,similarity,124,264,249,tt0443453,tt2562232,DontKnow,3308
6,8,59c10c3f3ed6380001598c4a,similarity,125,374,381,tt1504320,tt2024544,4,5280
6,8,59c10c3f3ed6380001598c4a,similarity,126,242,133,tt1431045,tt1386697,DontKnow,2189
6,8,59c10c3f3ed6380001598c4a,similarity,127,350,292,tt1037705,tt0418279,DontKnow,5540
6,8,59c10c3f3ed6380001598c4a,similarity,128,56,63,tt0441773,tt0317219,4,3566
6,8,59c10c3f3ed6380001598c4a,similarity,129,172,177,tt0099685,tt0208092,5,3197
6,8,59c10c3f3ed6380001598c4a,similarity,130,27,17,tt0450385,tt0298130,DontKnow,2274
6,8,59c10c3f3ed6380001598c4a,similarity,131,313,393,tt0286106,tt0327056,DontKnow,1903
6,8,59c10c3f3ed6380001598c4a,similarity,132,38,26,tt0384537,tt5052448,DontKnow,1694
6,8,59c10c3f3ed6380001598c4a,similarity,133,291,283,tt1877832,tt0848228,DontKnow,1434
6,8,59c10c3f3ed6380001598c4a,similarity,134,227,202,tt0407304,tt0103064,DontKnow,1597
6,8,59c10c3f3ed6380001598c4a,similarity,135,3,11,tt0816711,tt1259521,DontKnow,2041
6,8,59c10c3f3ed6380001598c4a,similarity,136,310,151,tt0083866,tt0113497,DontKnow,1629
6,8,59c10c3f3ed6380001598c4a,similarity,137,114,397,tt1193138,tt0335266,2,5634
6,8,59c10c3f3ed6380001598c4a,similarity,138,259,108,tt1723121,tt0396269,5,10325
6,8,59c10c3f3ed6380001598c4a,similarity,139,129,291,tt0800369,tt1877832,DontKnow,2104
6,8,59c10c3f3ed6380001598c4a,similarity,140,222,354,tt1229238,tt0118880,DontKnow,3334
6,8,59c10c3f3ed6380001598c4a,similarity,141,122,295,tt0499549,tt1631867,DontKnow,1793
6,8,59c10c3f3ed6380001598c4a,similarity,142,303,280,tt1535108,tt1375666,DontKnow,4342
6,8,59c10c3f3ed6380001598c4a,similarity,143,312,358,tt0119094,tt0187078,DontKnow,5121
6,8,59c10c3f3ed6380001598c4a,similarity,144,309,10,tt0831387,tt1060277,DontKnow,2168
6,8,59c10c3f3ed6380001598c4a,similarity,145,61,63,tt1772341,tt0317219,2,7009
6,8,59c10c3f3ed6380001598c4a,similarity,146,32,1,tt0134847,tt0078748,DontKnow,3496
6,8,59c10c3f3ed6380001598c4a,similarity,147,55,43,tt0101414,tt0110357,1,6502
6,8,59c10c3f3ed6380001598c4a,similarity,148,219,23,tt0364569,tt4972582,DontKnow,2618
6,8,59c10c3f3ed6380001598c4a,similarity,149,35,1,tt1179904,tt0078748,DontKnow,2588
6,8,59c10c3f3ed6380001598c4a,similarity,150,106,93,tt0446029,tt1022603,DontKnow,3382
6,8,59c10c3f3ed6380001598c4a,similarity,151,254,251,tt0449059,tt0467406,2,4620
6,8,59c10c3f3ed6380001598c4a,similarity,152,47,41,tt0317705,tt0266543,1,5226
6,8,59c10c3f3ed6380001598c4a,similarity,153,301,121,tt0119116,tt0076759,DontKnow,3707
6,8,59c10c3f3ed6380001598c4a,similarity,154,354,334,tt0118880,tt0111257,4,5435
6,8,59c10c3f3ed6380001598c4a,similarity,155,183,370,tt0075314,tt0180093,DontKnow,2447
6,8,59c10c3f3ed6380001598c4a,similarity,156,298,227,tt1318514,tt0407304,6,4551
6,8,59c10c3f3ed6380001598c4a,similarity,157,51,140,tt2294629,tt0093779,2,7073
6,8,59c10c3f3ed6380001598c4a,similarity,158,50,69,tt0245429,tt0347149,DontKnow,3322
6,8,59c10c3f3ed6380001598c4a,similarity,159,56,45,tt0441773,tt0198781,2,4538
6,8,59c10c3f3ed6380001598c4a,similarity,160,260,279,tt3783958,tt1748122,DontKnow,2269
6,8,59c10c3f3ed6380001598c4a,similarity,161,176,4,tt2267998,tt0054215,1,5000
6,8,59c10c3f3ed6380001598c4a,similarity,162,327,362,tt2713180,tt0361748,DontKnow,2556
6,8,59c10c3f3ed6380001598c4a,similarity,163,68,43,tt0107688,tt0110357,1,4703
6,8,59c10c3f3ed6380001598c4a,similarity,164,12,8,tt0070047,tt0387564,6,3669
6,8,59c10c3f3ed6380001598c4a,similarity,165,60,59,tt1217209,tt2245084,DontKnow,2368
6,8,59c10c3f3ed6380001598c4a,similarity,166,343,333,tt0790724,tt0328107,DontKnow,1820
6,8,59c10c3f3ed6380001598c4a,similarity,167,18,37,tt0167190,tt0259324,DontKnow,1576
6,8,59c10c3f3ed6380001598c4a,similarity,168,198,202,tt0343818,tt0103064,DontKnow,2329
6,8,59c10c3f3ed6380001598c4a,similarity,169,27,8,tt0450385,tt0387564,DontKnow,1495
6,8,59c10c3f3ed6380001598c4a,similarity,170,201,203,tt1130884,tt0167404,DontKnow,1616
6,8,59c10c3f3ed6380001598c4a,similarity,171,195,272,tt1232829,tt1231583,DontKnow,2419
6,8,59c10c3f3ed6380001598c4a,similarity,172,268,134,tt0079470,tt0071853,7,4607
6,8,59c10c3f3ed6380001598c4a,similarity,173,307,302,tt1790864,tt1840309,DontKnow,2638
6,8,59c10c3f3ed6380001598c4a,similarity,174,318,316,tt0100802,tt1104001,DontKnow,2915
6,8,59c10c3f3ed6380001598c4a,similarity,175,19,16,tt0110148,tt0162661,5,4383
6,8,59c10c3f3ed6380001598c4a,similarity,176,0,35,tt0081505,tt1179904,DontKnow,2258
6,8,59c10c3f3ed6380001598c4a,similarity,177,170,182,tt0110413,tt0317248,DontKnow,1508
6,8,59c10c3f3ed6380001598c4a,similarity,178,122,356,tt0499549,tt0120201,5,4069
6,8,59c10c3f3ed6380001598c4a,similarity,179,20,7,tt0360486,tt1457767,DontKnow,2381
6,8,59c10c3f3ed6380001598c4a,similarity,180,295,202,tt1631867,tt0103064,DontKnow,1969
6,8,59c10c3f3ed6380001598c4a,similarity,181,388,83,tt0454921,tt1010048,7,4118
6,8,59c10c3f3ed6380001598c4a,similarity,182,217,179,tt1219289,tt0066921,3,6388
6,8,59c10c3f3ed6380001598c4a,similarity,183,256,138,tt0057012,tt1245492,DontKnow,2747
6,8,59c10c3f3ed6380001598c4a,similarity,184,158,248,tt0486576,tt1250777,DontKnow,2428
6,8,59c10c3f3ed6380001598c4a,similarity,185,159,219,tt0259711,tt0364569,DontKnow,1578
6,8,59c10c3f3ed6380001598c4a,similarity,186,373,372,tt2084970,tt0253474,DontKnow,2258
6,8,59c10c3f3ed6380001598c4a,similarity,187,129,135,tt0800369,tt1211837,DontKnow,1717
6,8,59c10c3f3ed6380001598c4a,similarity,188,11,39,tt1259521,tt1139797,DontKnow,2122
6,8,59c10c3f3ed6380001598c4a,similarity,189,224,307,tt2872732,tt1790864,DontKnow,1435
6,8,59c10c3f3ed6380001598c4a,similarity,190,273,324,tt0910936,tt0448157,DontKnow,3675
6,8,59c10c3f3ed6380001598c4a,similarity,191,244,251,tt1675434,tt0467406,DontKnow,2217
6,8,59c10c3f3ed6380001598c4a,similarity,192,59,79,tt2245084,tt1436562,DontKnow,1466
6,8,59c10c3f3ed6380001598c4a,similarity,193,157,147,tt0486655,tt3183660,DontKnow,5073
6,8,59c10c3f3ed6380001598c4a,similarity,194,151,127,tt0113497,tt1201607,6,6122
6,8,59c10c3f3ed6380001598c4a,similarity,195,15,203,tt0230600,tt0167404,7,3578
6,8,59c10c3f3ed6380001598c4a,similarity,196,260,100,tt3783958,tt0405422,2,4531
6,8,59c10c3f3ed6380001598c4a,similarity,197,399,184,tt0033467,tt0050083,DontKnow,16783
6,8,59c10c3f3ed6380001598c4a,similarity,198,298,309,tt1318514,tt0831387,DontKnow,1718
6,8,59c10c3f3ed6380001598c4a,similarity,199,14,238,tt0084787,tt1650062,DontKnow,1682
6,8,59c10c3f3ed6380001598c4a,similarity,200,248,133,tt1250777,tt1386697,DontKnow,1670
6,8,59c10c3f3ed6380001598c4a,similarity,201,296,303,tt0062622,tt1535108,DontKnow,1603
6,8,59c10c3f3ed6380001598c4a,similarity,202,241,397,tt0120382,tt0335266,5,6329
6,8,59c10c3f3ed6380001598c4a,similarity,203,222,213,tt1229238,tt0440963,DontKnow,3067
6,8,59c10c3f3ed6380001598c4a,similarity,204,204,217,tt1392170,tt1219289,2,4914
6,8,59c10c3f3ed6380001598c4a,similarity,205,258,151,tt0367594,tt0113497,6,5237
6,8,59c10c3f3ed6380001598c4a,similarity,206,222,211,tt1229238,tt1074638,DontKnow,1943
7,10,5957b1835b278d00018fa319,similarity,0,365,271,tt0169547,tt0088847,4,14733
7,10,5957b1835b278d00018fa319,similarity,1,44,70,tt0114709,tt0120623,6,3768
7,10,5957b1835b278d00018fa319,similarity,2,103,95,tt0443543,tt1343092,DontKnow,15109
7,10,5957b1835b278d00018fa319,similarity,3,81,374,tt0120338,tt1504320,1,4340
7,10,5957b1835b278d00018fa319,similarity,4,325,330,tt2179136,tt5013056,4,5863
7,10,5957b1835b278d00018fa319,similarity,5,112,100,tt0343660,tt0405422,DontKnow,7078
7,10,5957b1835b278d00018fa319,similarity,6,186,219,tt0936501,tt0364569,5,5694
